phase,vehicle,startTime,moves,rewardsCollected,obstaclesHit,routeTaken,actions,lastValidKeyTime,hits,endTime,totalTime,sessionId,prolificId,studyId,trial,vehicleType,vehicleSize,vehicleColor,plan_seq,plan_rt_ms,raw_input_seq,translated_seq,valid_generalization,correctness_generalization,correctHL,correctLL,generalized_correctness_topdown,generalized_correctness_leftright,bias_second_order_valid,bias_second_order_correct,type_generalization,optimalRoute,dangerous_vehicle,worry,somatic_anxiety
0,"{""type"":""car"",""size"":""small"",""upKey"":""e"",""downKey"":""c"",""leftKey"":""q"",""rightKey"":""w"",""keys"":{""up"":""e"",""down"":""c"",""left"":""q"",""right"":""w""},""color"":""#2ca02c"",""x"":0,""y"":0}",1751816523553,"[{""direction"":""left"",""fromPosition"":{""x"":2,""y"":0},""toPosition"":{""x"":1,""y"":0},""time"":55161},{""direction"":""down"",""fromPosition"":{""x"":1,""y"":0},""toPosition"":{""x"":1,""y"":1},""time"":60607},{""direction"":""left"",""fromPosition"":{""x"":1,""y"":1},""toPosition"":{""x"":0,""y"":1},""time"":62775},{""direction"":""down"",""fromPosition"":{""x"":0,""y"":1},""toPosition"":{""x"":0,""y"":2},""time"":64370}]",2,0,"[""left"",""down"",""left"",""down""]","[{""key"":""q"",""direction"":""left"",""rt"":55161,""time"":55161},{""key"":""c"",""direction"":""down"",""rt"":5446,""time"":60607},{""key"":""q"",""direction"":""left"",""rt"":2168,""time"":62775},{""key"":""c"",""direction"":""down"",""rt"":1595,""time"":64370}]",1751816587923,"[""reward"",""reward""]",1751816587926,64373,686a98267ea25a2fa9f8158e,67eda7cef014b05ef5504c28,686a88d9a373fa0112df081c,,,,,,,,,,,,,,,,,,[],pickup_truck,16,15
1,,,,4,0,"[""right"",""up"",""left"",""left""]",,,"[""reward"",""reward"",""reward"",""reward""]",,20303,686a98267ea25a2fa9f8158e,67eda7cef014b05ef5504c28,686a88d9a373fa0112df081c,1,pickup_truck,medium,#822cd1,,,,,,,,,,,,,,"[""right"",""up"",""left"",""left""]",pickup_truck,16,15
1,,,,4,0,"[""down"",""right"",""right"",""up""]",,,"[""reward"",""reward"",""reward"",""reward""]",,16425,686a98267ea25a2fa9f8158e,67eda7cef014b05ef5504c28,686a88d9a373fa0112df081c,2,big_car,big,#FF5733,,,,,,,,,,,,,,"[""down"",""right"",""right"",""up""]",pickup_truck,16,15
1,,,,4,0,"[""down"",""left"",""down"",""right""]",,,"[""reward"",""reward"",""reward"",""reward""]",,22625,686a98267ea25a2fa9f8158e,67eda7cef014b05ef5504c28,686a88d9a373fa0112df081c,3,small_car,small,#822cd1,,,,,,,,,,,,,,"[""down"",""down"",""left"",""up""]",pickup_truck,16,15
1,,,,4,0,"[""left"",""left"",""up"",""right""]",,,"[""reward"",""reward"",""reward"",""reward""]",,12642,686a98267ea25a2fa9f8158e,67eda7cef014b05ef5504c28,686a88d9a373fa0112df081c,4,small_car,small,#ebeb5e,,,,,,,,,,,,,,"[""left"",""left"",""up"",""right""]",pickup_truck,16,15
1,,,,4,0,"[""left"",""left"",""down"",""right""]",,,"[""reward"",""reward"",""reward"",""reward""]",,14225,686a98267ea25a2fa9f8158e,67eda7cef014b05ef5504c28,686a88d9a373fa0112df081c,5,truck,medium,#ebeb5e,,,,,,,,,,,,,,"[""left"",""down"",""left"",""up""]",pickup_truck,16,15
1,,,,4,0,"[""right"",""down"",""down"",""left""]",,,"[""reward"",""reward"",""reward"",""reward""]",,11318,686a98267ea25a2fa9f8158e,67eda7cef014b05ef5504c28,686a88d9a373fa0112df081c,6,truck,medium,#FF99CC,,,,,,,,,,,,,,"[""right"",""down"",""down"",""left""]",pickup_truck,16,15
1,,,,4,0,"[""left"",""left"",""down"",""right""]",,,"[""reward"",""reward"",""reward"",""reward""]",,12683,686a98267ea25a2fa9f8158e,67eda7cef014b05ef5504c28,686a88d9a373fa0112df081c,7,small_car,small,#822cd1,,,,,,,,,,,,,,"[""left"",""left"",""down"",""right""]",pickup_truck,16,15
1,,,,4,0,"[""up"",""left"",""left"",""up""]",,,"[""reward"",""reward"",""reward"",""reward""]",,12288,686a98267ea25a2fa9f8158e,67eda7cef014b05ef5504c28,686a88d9a373fa0112df081c,8,big_car,big,#2ca02c,,,,,,,,,,,,,,"[""up"",""left"",""left"",""up""]",pickup_truck,16,15
1,,,,4,0,"[""up"",""up"",""left"",""down""]",,,"[""reward"",""reward"",""reward"",""reward""]",,10659,686a98267ea25a2fa9f8158e,67eda7cef014b05ef5504c28,686a88d9a373fa0112df081c,9,small_car,small,#FF5733,,,,,,,,,,,,,,"[""up"",""left"",""up"",""right""]",pickup_truck,16,15
1,,,,4,0,"[""left"",""down"",""down"",""right""]",,,"[""reward"",""reward"",""reward"",""reward""]",,9378,686a98267ea25a2fa9f8158e,67eda7cef014b05ef5504c28,686a88d9a373fa0112df081c,10,big_car,big,#2ca02c,,,,,,,,,,,,,,"[""left"",""down"",""down"",""right""]",pickup_truck,16,15
1,,,,4,0,"[""down"",""left"",""left"",""up""]",,,"[""reward"",""reward"",""reward"",""reward""]",,10586,686a98267ea25a2fa9f8158e,67eda7cef014b05ef5504c28,686a88d9a373fa0112df081c,11,small_car,small,#FF99CC,,,,,,,,,,,,,,"[""down"",""left"",""left"",""up""]",pickup_truck,16,15
1,,,,4,0,"[""down"",""down"",""right"",""up""]",,,"[""reward"",""reward"",""reward"",""reward""]",,12601,686a98267ea25a2fa9f8158e,67eda7cef014b05ef5504c28,686a88d9a373fa0112df081c,12,small_car,small,#FF99CC,,,,,,,,,,,,,,"[""down"",""right"",""down"",""left""]",pickup_truck,16,15
1,,,,4,0,"[""left"",""down"",""right"",""right""]",,,"[""reward"",""reward"",""reward"",""reward""]",,12178,686a98267ea25a2fa9f8158e,67eda7cef014b05ef5504c28,686a88d9a373fa0112df081c,13,pickup_truck,medium,#FF99CC,,,,,,,,,,,,,,"[""left"",""down"",""right"",""right""]",pickup_truck,16,15
1,,,,4,0,"[""up"",""right"",""right"",""up""]",,,"[""reward"",""reward"",""reward"",""reward""]",,7862,686a98267ea25a2fa9f8158e,67eda7cef014b05ef5504c28,686a88d9a373fa0112df081c,14,truck,medium,#FF5733,,,,,,,,,,,,,,"[""up"",""right"",""right"",""up""]",pickup_truck,16,15
1,,,,4,0,"[""left"",""up"",""up"",""right""]",,,"[""reward"",""reward"",""reward"",""reward""]",,12850,686a98267ea25a2fa9f8158e,67eda7cef014b05ef5504c28,686a88d9a373fa0112df081c,15,small_car,small,#ebeb5e,,,,,,,,,,,,,,"[""left"",""up"",""up"",""right""]",pickup_truck,16,15
1,,,,4,0,"[""down"",""down"",""left"",""left""]",,,"[""reward"",""reward"",""reward"",""reward""]",,7979,686a98267ea25a2fa9f8158e,67eda7cef014b05ef5504c28,686a88d9a373fa0112df081c,16,small_car,small,#FF5733,,,,,,,,,,,,,,"[""down"",""down"",""left"",""left""]",pickup_truck,16,15
1,,,,4,0,"[""up"",""left"",""down"",""down""]",,,"[""reward"",""reward"",""reward"",""reward""]",,9406,686a98267ea25a2fa9f8158e,67eda7cef014b05ef5504c28,686a88d9a373fa0112df081c,17,big_car,big,#ebeb5e,,,,,,,,,,,,,,"[""up"",""left"",""down"",""down""]",pickup_truck,16,15
1,,,,4,0,"[""up"",""left"",""up"",""left""]",,,"[""reward"",""reward"",""reward"",""reward""]",,13870,686a98267ea25a2fa9f8158e,67eda7cef014b05ef5504c28,686a88d9a373fa0112df081c,18,pickup_truck,medium,#822cd1,,,,,,,,,,,,,,"[""up"",""left"",""up"",""left""]",pickup_truck,16,15
1,,,,4,0,"[""right"",""down"",""left"",""down""]",,,"[""reward"",""reward"",""reward"",""reward""]",,11760,686a98267ea25a2fa9f8158e,67eda7cef014b05ef5504c28,686a88d9a373fa0112df081c,19,truck,medium,#FF99CC,,,,,,,,,,,,,,"[""right"",""down"",""left"",""down""]",pickup_truck,16,15
1,,,,4,0,"[""left"",""left"",""down"",""down""]",,,"[""reward"",""reward"",""reward"",""reward""]",,10624,686a98267ea25a2fa9f8158e,67eda7cef014b05ef5504c28,686a88d9a373fa0112df081c,20,big_car,big,#ebeb5e,,,,,,,,,,,,,,"[""left"",""left"",""down"",""down""]",pickup_truck,16,15
1,,,,4,0,"[""down"",""down"",""right"",""right""]",,,"[""reward"",""reward"",""reward"",""reward""]",,6155,686a98267ea25a2fa9f8158e,67eda7cef014b05ef5504c28,686a88d9a373fa0112df081c,21,truck,medium,#2ca02c,,,,,,,,,,,,,,"[""down"",""down"",""right"",""right""]",pickup_truck,16,15
1,,,,4,0,"[""right"",""down"",""down"",""left""]",,,"[""reward"",""reward"",""reward"",""reward""]",,10181,686a98267ea25a2fa9f8158e,67eda7cef014b05ef5504c28,686a88d9a373fa0112df081c,22,truck,medium,#ebeb5e,,,,,,,,,,,,,,"[""right"",""down"",""down"",""left""]",pickup_truck,16,15
1,,,,4,0,"[""right"",""down"",""down"",""right""]",,,"[""reward"",""reward"",""reward"",""reward""]",,9480,686a98267ea25a2fa9f8158e,67eda7cef014b05ef5504c28,686a88d9a373fa0112df081c,23,small_car,small,#FF99CC,,,,,,,,,,,,,,"[""right"",""down"",""down"",""right""]",pickup_truck,16,15
1,,,,4,0,"[""left"",""down"",""down"",""left""]",,,"[""reward"",""reward"",""reward"",""reward""]",,8184,686a98267ea25a2fa9f8158e,67eda7cef014b05ef5504c28,686a88d9a373fa0112df081c,24,small_car,small,#ebeb5e,,,,,,,,,,,,,,"[""left"",""down"",""down"",""left""]",pickup_truck,16,15
1,,,,4,0,"[""down"",""right"",""down"",""right""]",,,"[""reward"",""reward"",""reward"",""reward""]",,12160,686a98267ea25a2fa9f8158e,67eda7cef014b05ef5504c28,686a88d9a373fa0112df081c,25,big_car,big,#FF99CC,,,,,,,,,,,,,,"[""down"",""right"",""down"",""right""]",pickup_truck,16,15
1,,,,4,0,"[""right"",""down"",""left"",""left""]",,,"[""reward"",""reward"",""reward"",""reward""]",,9946,686a98267ea25a2fa9f8158e,67eda7cef014b05ef5504c28,686a88d9a373fa0112df081c,26,pickup_truck,medium,#ebeb5e,,,,,,,,,,,,,,"[""right"",""down"",""left"",""left""]",pickup_truck,16,15
1,,,,4,0,"[""down"",""right"",""up"",""right""]",,,"[""reward"",""reward"",""reward"",""reward""]",,12034,686a98267ea25a2fa9f8158e,67eda7cef014b05ef5504c28,686a88d9a373fa0112df081c,27,pickup_truck,medium,#2ca02c,,,,,,,,,,,,,,"[""down"",""right"",""up"",""right""]",pickup_truck,16,15
1,,,,4,0,"[""left"",""left"",""up"",""up""]",,,"[""reward"",""reward"",""reward"",""reward""]",,10159,686a98267ea25a2fa9f8158e,67eda7cef014b05ef5504c28,686a88d9a373fa0112df081c,28,big_car,big,#FF99CC,,,,,,,,,,,,,,"[""left"",""left"",""up"",""up""]",pickup_truck,16,15
1,,,,4,0,"[""left"",""down"",""down"",""right""]",,,"[""reward"",""reward"",""reward"",""reward""]",,12937,686a98267ea25a2fa9f8158e,67eda7cef014b05ef5504c28,686a88d9a373fa0112df081c,29,big_car,big,#822cd1,,,,,,,,,,,,,,"[""left"",""down"",""down"",""right""]",pickup_truck,16,15
1,,,,4,0,"[""up"",""left"",""down"",""down""]",,,"[""reward"",""reward"",""reward"",""reward""]",,10141,686a98267ea25a2fa9f8158e,67eda7cef014b05ef5504c28,686a88d9a373fa0112df081c,30,pickup_truck,medium,#FF5733,,,,,,,,,,,,,,"[""up"",""left"",""down"",""down""]",pickup_truck,16,15
1,,,,4,0,"[""right"",""down"",""down"",""left""]",,,"[""reward"",""reward"",""reward"",""reward""]",,12012,686a98267ea25a2fa9f8158e,67eda7cef014b05ef5504c28,686a88d9a373fa0112df081c,31,truck,medium,#FF99CC,,,,,,,,,,,,,,"[""right"",""down"",""down"",""left""]",pickup_truck,16,15
1,,,,4,0,"[""left"",""down"",""down"",""right""]",,,"[""reward"",""reward"",""reward"",""reward""]",,11445,686a98267ea25a2fa9f8158e,67eda7cef014b05ef5504c28,686a88d9a373fa0112df081c,32,truck,medium,#822cd1,,,,,,,,,,,,,,"[""left"",""down"",""down"",""right""]",pickup_truck,16,15
1,,,,4,0,"[""up"",""right"",""down"",""down""]",,,"[""reward"",""reward"",""reward"",""reward""]",,9638,686a98267ea25a2fa9f8158e,67eda7cef014b05ef5504c28,686a88d9a373fa0112df081c,33,pickup_truck,medium,#FF5733,,,,,,,,,,,,,,"[""up"",""right"",""down"",""down""]",pickup_truck,16,15
1,,,,4,0,"[""up"",""up"",""right"",""down""]",,,"[""reward"",""reward"",""reward"",""reward""]",,10542,686a98267ea25a2fa9f8158e,67eda7cef014b05ef5504c28,686a88d9a373fa0112df081c,34,pickup_truck,medium,#ebeb5e,,,,,,,,,,,,,,"[""up"",""up"",""right"",""down""]",pickup_truck,16,15
1,,,,4,0,"[""right"",""down"",""left"",""left""]",,,"[""reward"",""reward"",""reward"",""reward""]",,10805,686a98267ea25a2fa9f8158e,67eda7cef014b05ef5504c28,686a88d9a373fa0112df081c,35,truck,medium,#2ca02c,,,,,,,,,,,,,,"[""right"",""down"",""left"",""left""]",pickup_truck,16,15
1,,,,4,0,"[""right"",""down"",""left"",""left""]",,,"[""reward"",""reward"",""reward"",""reward""]",,7550,686a98267ea25a2fa9f8158e,67eda7cef014b05ef5504c28,686a88d9a373fa0112df081c,36,big_car,big,#ebeb5e,,,,,,,,,,,,,,"[""right"",""down"",""left"",""left""]",pickup_truck,16,15
1,,,,4,0,"[""up"",""left"",""left"",""down""]",,,"[""reward"",""reward"",""reward"",""reward""]",,15391,686a98267ea25a2fa9f8158e,67eda7cef014b05ef5504c28,686a88d9a373fa0112df081c,37,pickup_truck,medium,#FF99CC,,,,,,,,,,,,,,"[""up"",""left"",""left"",""down""]",pickup_truck,16,15
1,,,,4,0,"[""left"",""left"",""up"",""up""]",,,"[""reward"",""reward"",""reward"",""reward""]",,8822,686a98267ea25a2fa9f8158e,67eda7cef014b05ef5504c28,686a88d9a373fa0112df081c,38,small_car,small,#822cd1,,,,,,,,,,,,,,"[""left"",""left"",""up"",""up""]",pickup_truck,16,15
1,,,,4,0,"[""right"",""right"",""down"",""left""]",,,"[""reward"",""reward"",""reward"",""reward""]",,10283,686a98267ea25a2fa9f8158e,67eda7cef014b05ef5504c28,686a88d9a373fa0112df081c,39,pickup_truck,medium,#2ca02c,,,,,,,,,,,,,,"[""right"",""right"",""down"",""left""]",pickup_truck,16,15
1,,,,4,0,"[""right"",""right"",""down"",""left""]",,,"[""reward"",""reward"",""reward"",""reward""]",,10108,686a98267ea25a2fa9f8158e,67eda7cef014b05ef5504c28,686a88d9a373fa0112df081c,40,pickup_truck,medium,#FF5733,,,,,,,,,,,,,,"[""right"",""down"",""right"",""up""]",pickup_truck,16,15
1,,,,4,0,"[""up"",""up"",""right"",""right""]",,,"[""reward"",""reward"",""reward"",""reward""]",,6920,686a98267ea25a2fa9f8158e,67eda7cef014b05ef5504c28,686a88d9a373fa0112df081c,41,big_car,big,#FF5733,,,,,,,,,,,,,,"[""up"",""up"",""right"",""right""]",pickup_truck,16,15
1,,,,4,0,"[""down"",""down"",""right"",""up""]",,,"[""reward"",""reward"",""reward"",""reward""]",,16489,686a98267ea25a2fa9f8158e,67eda7cef014b05ef5504c28,686a88d9a373fa0112df081c,42,big_car,big,#FF99CC,,,,,,,,,,,,,,"[""down"",""right"",""down"",""left""]",pickup_truck,16,15
1,,,,4,0,"[""right"",""up"",""up"",""left""]",,,"[""reward"",""reward"",""reward"",""reward""]",,9967,686a98267ea25a2fa9f8158e,67eda7cef014b05ef5504c28,686a88d9a373fa0112df081c,43,big_car,big,#822cd1,,,,,,,,,,,,,,"[""right"",""up"",""up"",""left""]",pickup_truck,16,15
1,,,,4,0,"[""up"",""left"",""down"",""down""]",,,"[""reward"",""reward"",""reward"",""reward""]",,9692,686a98267ea25a2fa9f8158e,67eda7cef014b05ef5504c28,686a88d9a373fa0112df081c,44,big_car,big,#FF5733,,,,,,,,,,,,,,"[""up"",""left"",""down"",""down""]",pickup_truck,16,15
1,,,,4,0,"[""right"",""up"",""left"",""left""]",,,"[""reward"",""reward"",""reward"",""reward""]",,9871,686a98267ea25a2fa9f8158e,67eda7cef014b05ef5504c28,686a88d9a373fa0112df081c,45,truck,medium,#FF5733,,,,,,,,,,,,,,"[""right"",""up"",""left"",""left""]",pickup_truck,16,15
1,,,,4,0,"[""up"",""up"",""right"",""down""]",,,"[""reward"",""reward"",""reward"",""reward""]",,34904,686a98267ea25a2fa9f8158e,67eda7cef014b05ef5504c28,686a88d9a373fa0112df081c,46,truck,medium,#FF5733,,,,,,,,,,,,,,"[""up"",""right"",""up"",""left""]",pickup_truck,16,15
1,,,,4,0,"[""left"",""left"",""up"",""up""]",,,"[""reward"",""reward"",""reward"",""reward""]",,14148,686a98267ea25a2fa9f8158e,67eda7cef014b05ef5504c28,686a88d9a373fa0112df081c,47,pickup_truck,medium,#FF99CC,,,,,,,,,,,,,,"[""left"",""left"",""up"",""up""]",pickup_truck,16,15
1,,,,4,0,"[""right"",""up"",""up"",""left""]",,,"[""reward"",""reward"",""reward"",""reward""]",,13278,686a98267ea25a2fa9f8158e,67eda7cef014b05ef5504c28,686a88d9a373fa0112df081c,48,pickup_truck,medium,#2ca02c,,,,,,,,,,,,,,"[""right"",""up"",""up"",""left""]",pickup_truck,16,15
1,,,,4,0,"[""down"",""left"",""left"",""up""]",,,"[""reward"",""reward"",""reward"",""reward""]",,9874,686a98267ea25a2fa9f8158e,67eda7cef014b05ef5504c28,686a88d9a373fa0112df081c,49,small_car,small,#2ca02c,,,,,,,,,,,,,,"[""down"",""left"",""left"",""up""]",pickup_truck,16,15
1,,,,4,0,"[""down"",""down"",""right"",""up""]",,,"[""reward"",""reward"",""reward"",""reward""]",,13819,686a98267ea25a2fa9f8158e,67eda7cef014b05ef5504c28,686a88d9a373fa0112df081c,50,truck,medium,#2ca02c,,,,,,,,,,,,,,"[""down"",""down"",""right"",""up""]",pickup_truck,16,15
1,,,,4,0,"[""down"",""down"",""right"",""up""]",,,"[""reward"",""reward"",""reward"",""reward""]",,7673,686a98267ea25a2fa9f8158e,67eda7cef014b05ef5504c28,686a88d9a373fa0112df081c,51,big_car,big,#822cd1,,,,,,,,,,,,,,"[""down"",""down"",""right"",""up""]",pickup_truck,16,15
1,,,,4,0,"[""right"",""up"",""left"",""left""]",,,"[""reward"",""reward"",""reward"",""reward""]",,13689,686a98267ea25a2fa9f8158e,67eda7cef014b05ef5504c28,686a88d9a373fa0112df081c,52,pickup_truck,medium,#822cd1,,,,,,,,,,,,,,"[""right"",""up"",""left"",""left""]",pickup_truck,16,15
1,,,,4,0,"[""right"",""right"",""up"",""left""]",,,"[""reward"",""reward"",""reward"",""reward""]",,9137,686a98267ea25a2fa9f8158e,67eda7cef014b05ef5504c28,686a88d9a373fa0112df081c,53,big_car,big,#2ca02c,,,,,,,,,,,,,,"[""right"",""up"",""right"",""down""]",pickup_truck,16,15
1,,,,4,0,"[""left"",""left"",""down"",""right""]",,,"[""reward"",""reward"",""reward"",""reward""]",,9145,686a98267ea25a2fa9f8158e,67eda7cef014b05ef5504c28,686a88d9a373fa0112df081c,54,truck,medium,#822cd1,,,,,,,,,,,,,,"[""left"",""down"",""left"",""up""]",pickup_truck,16,15
1,,,,4,0,"[""up"",""right"",""up"",""right""]",,,"[""reward"",""reward"",""reward"",""reward""]",,9199,686a98267ea25a2fa9f8158e,67eda7cef014b05ef5504c28,686a88d9a373fa0112df081c,55,truck,medium,#ebeb5e,,,,,,,,,,,,,,"[""up"",""right"",""up"",""right""]",pickup_truck,16,15
1,,,,4,0,"[""right"",""up"",""left"",""left""]",,,"[""reward"",""reward"",""reward"",""reward""]",,9882,686a98267ea25a2fa9f8158e,67eda7cef014b05ef5504c28,686a88d9a373fa0112df081c,56,pickup_truck,medium,#ebeb5e,,,,,,,,,,,,,,"[""right"",""up"",""left"",""left""]",pickup_truck,16,15
1,,,,4,0,"[""down"",""left"",""up"",""left""]",,,"[""reward"",""reward"",""reward"",""reward""]",,11910,686a98267ea25a2fa9f8158e,67eda7cef014b05ef5504c28,686a88d9a373fa0112df081c,57,truck,medium,#822cd1,,,,,,,,,,,,,,"[""down"",""left"",""up"",""left""]",pickup_truck,16,15
1,,,,4,0,"[""up"",""up"",""right"",""down""]",,,"[""reward"",""reward"",""reward"",""reward""]",,8947,686a98267ea25a2fa9f8158e,67eda7cef014b05ef5504c28,686a88d9a373fa0112df081c,58,small_car,small,#2ca02c,,,,,,,,,,,,,,"[""up"",""up"",""right"",""down""]",pickup_truck,16,15
1,,,,4,0,"[""down"",""left"",""up"",""left""]",,,"[""reward"",""reward"",""reward"",""reward""]",,13148,686a98267ea25a2fa9f8158e,67eda7cef014b05ef5504c28,686a88d9a373fa0112df081c,59,small_car,small,#FF5733,,,,,,,,,,,,,,"[""down"",""left"",""up"",""left""]",pickup_truck,16,15
1,,,,4,0,"[""down"",""left"",""left"",""up""]",,,"[""reward"",""reward"",""reward"",""reward""]",,7069,686a98267ea25a2fa9f8158e,67eda7cef014b05ef5504c28,686a88d9a373fa0112df081c,60,small_car,small,#2ca02c,,,,,,,,,,,,,,"[""down"",""left"",""left"",""up""]",pickup_truck,16,15
2,,1751817474531,[],0,0,,[],,"[""empty"",""empty"",""empty"",""empty""]",1751817546226,71695,686a98267ea25a2fa9f8158e,67eda7cef014b05ef5504c28,686a88d9a373fa0112df081c,1,dump_truck,medium,#33FF57,tqtm,71692,tqtm,upupright,3,3,2,1,,,1,1,second-order,"[""up"",""left"",""up"",""right""]",pickup_truck,16,15
2,,1751817546639,"[{""direction"":""up"",""keyPressed"":""e"",""time"":35304}]",0,0,,[],,"[""reward"",""empty"",""empty"",""empty""]",1751817581944,35305,686a98267ea25a2fa9f8158e,67eda7cef014b05ef5504c28,686a88d9a373fa0112df081c,2,medium_car,medium,#e02319,enbb,35304,enbb,up,1,1,1,0,,,0,0,second-order,"[""up"",""right"",""down"",""down""]",pickup_truck,16,15
2,,1751817582351,[],0,0,,[],,"[""empty"",""empty"",""empty"",""empty""]",1751817599877,17526,686a98267ea25a2fa9f8158e,67eda7cef014b05ef5504c28,686a88d9a373fa0112df081c,3,dump_truck,medium,#33C1FF,ennb,17525,ennb,leftleftdown,3,1,1,0,,,2,0,second-order,"[""up"",""right"",""right"",""down""]",pickup_truck,16,15
2,,1751817600292,[],0,0,,[],,"[""empty"",""empty"",""empty"",""empty""]",1751817643708,43416,686a98267ea25a2fa9f8158e,67eda7cef014b05ef5504c28,686a88d9a373fa0112df081c,4,dump_truck,medium,#dbc7f0,txbb,43415,txbb,updowndown,3,3,3,0,,,0,0,second-order,"[""up"",""left"",""down"",""down""]",pickup_truck,16,15
2,,1751817644125,[],0,0,,[],,"[""empty"",""empty"",""empty"",""empty""]",1751817697937,53812,686a98267ea25a2fa9f8158e,67eda7cef014b05ef5504c28,686a88d9a373fa0112df081c,5,big_car,big,#e02319,nbbq,53811,nbbq,,0,0,0,0,0,0,0,0,first-order,"[""right"",""down"",""down"",""left""]",pickup_truck,16,15
2,,1751817698344,"[{""direction"":""up"",""keyPressed"":""e"",""time"":23586}]",0,0,,[],,"[""reward"",""empty"",""empty"",""empty""]",1751817721931,23587,686a98267ea25a2fa9f8158e,67eda7cef014b05ef5504c28,686a88d9a373fa0112df081c,6,small_car,small,#33C1FF,enbb,23586,enbb,up,1,1,1,0,1,0,0,0,first-order,"[""up"",""left"",""down"",""down""]",pickup_truck,16,15
2,,1751817722339,"[{""direction"":""down"",""keyPressed"":""b"",""time"":39061}]",0,0,,[],,"[""empty"",""empty"",""out_of_bounds_down"",""empty""]",1751817761402,39063,686a98267ea25a2fa9f8158e,67eda7cef014b05ef5504c28,686a88d9a373fa0112df081c,7,pickup_truck,medium,#e02319,rmbn,39061,rmbn,down,1,1,1,0,1,0,0,0,first-order,"[""up"",""right"",""down"",""right""]",pickup_truck,16,15
2,,1751817761819,[],0,0,,[],,"[""empty"",""empty"",""empty"",""empty""]",1751817775984,14165,686a98267ea25a2fa9f8158e,67eda7cef014b05ef5504c28,686a88d9a373fa0112df081c,8,medium_car,medium,#33FF57,qbbm,14164,qbbm,left,1,1,0,1,,,-1,-1,second-order,"[""left"",""down"",""down"",""right""]",pickup_truck,16,15
2,,1751817776392,[],0,0,,[],,"[""empty"",""empty"",""empty"",""empty""]",1751817790328,13936,686a98267ea25a2fa9f8158e,67eda7cef014b05ef5504c28,686a88d9a373fa0112df081c,9,dump_truck,medium,#ad5d24,eeqx,13935,eeqx,,0,0,0,0,,,0,0,second-order,"[""up"",""left"",""up"",""right""]",pickup_truck,16,15
2,,1751817790732,"[{""direction"":""up"",""keyPressed"":""e"",""time"":30463},{""direction"":""down"",""keyPressed"":""c"",""time"":30463}]",0,0,,[],,"[""reward"",""empty"",""empty"",""empty""]",1751817821196,30464,686a98267ea25a2fa9f8158e,67eda7cef014b05ef5504c28,686a88d9a373fa0112df081c,10,medium_car,medium,#ad5d24,eqcq,30463,eqcq,upleftdownleft,4,4,2,2,,,-2,-2,second-order,"[""up"",""left"",""down"",""left""]",pickup_truck,16,15
2,,1751817821602,"[{""direction"":""up"",""keyPressed"":""e"",""time"":30379},{""direction"":""up"",""keyPressed"":""e"",""time"":30379},{""direction"":""down"",""keyPressed"":""c"",""time"":30379}]",0,0,,[],,"[""empty"",""obstacle"",""reward"",""obstacle""]",1751817851982,30380,686a98267ea25a2fa9f8158e,67eda7cef014b05ef5504c28,686a88d9a373fa0112df081c,11,medium_car,medium,#33C1FF,meec,30379,meec,upupdown,3,2,2,0,,,0,0,second-order,"[""right"",""up"",""up"",""left""]",pickup_truck,16,15
2,,1751817852385,[],0,0,,[],,"[""empty"",""empty"",""empty"",""empty""]",1751817873639,21254,686a98267ea25a2fa9f8158e,67eda7cef014b05ef5504c28,686a88d9a373fa0112df081c,12,big_car,big,#33FF57,bmtm,21253,bmtm,,0,0,0,0,0,0,0,0,first-order,"[""down"",""right"",""up"",""right""]",pickup_truck,16,15
2,,1751817874045,"[{""direction"":""down"",""keyPressed"":""b"",""time"":17787},{""direction"":""down"",""keyPressed"":""b"",""time"":17787}]",0,0,,[],,"[""reward"",""reward"",""empty"",""empty""]",1751817891834,17789,686a98267ea25a2fa9f8158e,67eda7cef014b05ef5504c28,686a88d9a373fa0112df081c,13,pickup_truck,medium,#dbc7f0,bbqq,17787,bbqq,downdown,2,2,2,0,2,0,0,0,first-order,"[""down"",""down"",""left"",""left""]",pickup_truck,16,15
2,,1751817892236,"[{""direction"":""down"",""keyPressed"":""b"",""time"":16078},{""direction"":""down"",""keyPressed"":""b"",""time"":16078}]",0,0,,[],,"[""empty"",""empty"",""empty"",""out_of_bounds_down""]",1751817908315,16079,686a98267ea25a2fa9f8158e,67eda7cef014b05ef5504c28,686a88d9a373fa0112df081c,14,pickup_truck,medium,#33FF57,enbb,16078,enbb,downdown,2,2,2,0,2,0,0,0,first-order,"[""up"",""right"",""down"",""down""]",pickup_truck,16,15
2,,1751817908721,[],0,0,,[],,"[""empty"",""empty"",""empty"",""empty""]",1751817919017,10296,686a98267ea25a2fa9f8158e,67eda7cef014b05ef5504c28,686a88d9a373fa0112df081c,15,dump_truck,medium,#e02319,bqqe,10295,bqqe,down,1,1,1,0,,,0,0,second-order,"[""down"",""left"",""left"",""up""]",pickup_truck,16,15
2,,1751817919428,"[{""direction"":""up"",""keyPressed"":""e"",""time"":13597},{""direction"":""up"",""keyPressed"":""e"",""time"":13597}]",0,0,,[],,"[""reward"",""reward"",""empty"",""empty""]",1751817933026,13598,686a98267ea25a2fa9f8158e,67eda7cef014b05ef5504c28,686a88d9a373fa0112df081c,16,medium_car,medium,#2c0eb5,eeqb,13597,eeqb,upupleft,3,3,2,1,,,-1,-1,second-order,"[""up"",""up"",""left"",""down""]",pickup_truck,16,15
2,,1751817933433,"[{""direction"":""down"",""keyPressed"":""b"",""time"":16159},{""direction"":""left"",""keyPressed"":""n"",""time"":16159},{""direction"":""left"",""keyPressed"":""n"",""time"":16159},{""direction"":""down"",""keyPressed"":""b"",""time"":16159}]",0,0,,[],,"[""reward"",""out_of_bounds_left"",""out_of_bounds_left"",""empty""]",1751817949593,16160,686a98267ea25a2fa9f8158e,67eda7cef014b05ef5504c28,686a88d9a373fa0112df081c,17,truck,medium,#ad5d24,bnnb,16159,bnnb,downleftleftdown,4,2,2,0,2,0,0,0,first-order,"[""down"",""right"",""right"",""down""]",pickup_truck,16,15
2,,1751817950007,"[{""direction"":""up"",""keyPressed"":""e"",""time"":8169},{""direction"":""up"",""keyPressed"":""e"",""time"":8169},{""direction"":""left"",""keyPressed"":""q"",""time"":8169}]",0,0,,[],,"[""reward"",""reward"",""reward"",""empty""]",1751817958177,8170,686a98267ea25a2fa9f8158e,67eda7cef014b05ef5504c28,686a88d9a373fa0112df081c,18,small_car,small,#2c0eb5,eeqb,8169,eeqb,upupleft,3,3,2,1,2,1,0,0,first-order,"[""up"",""up"",""left"",""down""]",pickup_truck,16,15
2,,1751817958592,"[{""direction"":""up"",""keyPressed"":""e"",""time"":11992},{""direction"":""up"",""keyPressed"":""e"",""time"":11992}]",0,0,,[],,"[""reward"",""reward"",""empty"",""empty""]",1751817970585,11993,686a98267ea25a2fa9f8158e,67eda7cef014b05ef5504c28,686a88d9a373fa0112df081c,19,medium_car,medium,#dbc7f0,eenb,11992,eenb,upup,2,2,2,0,,,0,0,second-order,"[""up"",""up"",""right"",""down""]",pickup_truck,16,15
2,,1751817970987,[],0,0,,[],,"[""empty"",""empty"",""empty"",""empty""]",1751817981923,10936,686a98267ea25a2fa9f8158e,67eda7cef014b05ef5504c28,686a88d9a373fa0112df081c,20,dump_truck,medium,#2c0eb5,nneq,10935,nneq,leftleft,2,0,0,0,,,2,0,second-order,"[""right"",""right"",""up"",""left""]",pickup_truck,16,15
2,,1751817982325,[],0,0,,[],,"[""empty"",""empty"",""empty"",""empty""]",1751818043992,61667,686a98267ea25a2fa9f8158e,67eda7cef014b05ef5504c28,686a88d9a373fa0112df081c,21,truck,medium,#33FF57,eeww,61666,eeww,,0,0,0,0,0,0,0,0,first-order,"[""up"",""up"",""right"",""right""]",pickup_truck,16,15
2,,1751818044408,"[{""direction"":""left"",""keyPressed"":""n"",""time"":29658},{""direction"":""up"",""keyPressed"":""t"",""time"":29658},{""direction"":""up"",""keyPressed"":""t"",""time"":29658}]",0,0,,[],,"[""empty"",""obstacle"",""empty"",""empty""]",1751818074067,29659,686a98267ea25a2fa9f8158e,67eda7cef014b05ef5504c28,686a88d9a373fa0112df081c,22,truck,medium,#2c0eb5,nttx,29658,nttx,leftupup,3,2,2,0,2,0,0,0,first-order,"[""right"",""up"",""up"",""left""]",pickup_truck,16,15
2,,1751818074471,"[{""direction"":""up"",""keyPressed"":""e"",""time"":17522}]",0,0,,[],,"[""empty"",""empty"",""obstacle"",""obstacle""]",1751818091994,17523,686a98267ea25a2fa9f8158e,67eda7cef014b05ef5504c28,686a88d9a373fa0112df081c,23,big_car,big,#dbc7f0,qqew,17522,qqew,up,1,0,0,0,0,0,0,0,first-order,"[""left"",""up"",""left"",""down""]",pickup_truck,16,15
2,,1751818092409,"[{""direction"":""up"",""keyPressed"":""e"",""time"":16377},{""direction"":""left"",""keyPressed"":""q"",""time"":16377},{""direction"":""left"",""keyPressed"":""q"",""time"":16377}]",0,0,,[],,"[""reward"",""reward"",""reward"",""empty""]",1751818108788,16379,686a98267ea25a2fa9f8158e,67eda7cef014b05ef5504c28,686a88d9a373fa0112df081c,24,small_car,small,#33FF57,eqqb,16377,eqqb,upleftleft,3,3,1,2,1,2,0,0,first-order,"[""up"",""left"",""left"",""down""]",pickup_truck,16,15
0,"{""type"":""car"",""size"":""big"",""upKey"":""e"",""downKey"":""c"",""leftKey"":""q"",""rightKey"":""w"",""keys"":{""up"":""e"",""down"":""c"",""left"":""z"",""right"":""x""},""color"":""#ebeb5e"",""x"":0,""y"":2}",1751821892282,"[{""direction"":""left"",""fromPosition"":{""x"":2,""y"":0},""toPosition"":{""x"":1,""y"":0},""time"":17425},{""direction"":""down"",""fromPosition"":{""x"":1,""y"":0},""toPosition"":{""x"":1,""y"":1},""time"":19326},{""direction"":""left"",""fromPosition"":{""x"":1,""y"":1},""toPosition"":{""x"":0,""y"":1},""time"":19840},{""direction"":""down"",""fromPosition"":{""x"":0,""y"":1},""toPosition"":{""x"":0,""y"":2},""time"":20198}]",2,0,"[""left"",""down"",""left"",""down""]","[{""key"":""q"",""direction"":""left"",""rt"":17425,""time"":17425},{""key"":""c"",""direction"":""down"",""rt"":1901,""time"":19326},{""key"":""q"",""direction"":""left"",""rt"":514,""time"":19840},{""key"":""c"",""direction"":""down"",""rt"":358,""time"":20198}]",1751821912480,"[""reward"",""reward""]",1751821912482,20200,686aa9b0bad0290a85eb1070,62e154b0682e270b4acdf5ee,686aa7edb38bfd09fe6284f9,,,,,,,,,,,,,,,,,,[],big_car,11,10
1,,,,4,0,"[""up"",""left"",""down"",""down""]",,,"[""reward"",""reward"",""reward"",""reward""]",,13008,686aa9b0bad0290a85eb1070,62e154b0682e270b4acdf5ee,686aa7edb38bfd09fe6284f9,1,pickup_truck,medium,#FF5733,,,,,,,,,,,,,,"[""up"",""left"",""down"",""down""]",big_car,11,10
1,,,,4,0,"[""up"",""left"",""down"",""down""]",,,"[""reward"",""reward"",""reward"",""reward""]",,9352,686aa9b0bad0290a85eb1070,62e154b0682e270b4acdf5ee,686aa7edb38bfd09fe6284f9,2,big_car,big,#FF5733,,,,,,,,,,,,,,"[""up"",""left"",""down"",""down""]",big_car,11,10
1,,,,4,0,"[""left"",""left"",""down"",""down"",""right"",""up""]",,,"[""reward"",""reward"",""reward"",""reward""]",,21132,686aa9b0bad0290a85eb1070,62e154b0682e270b4acdf5ee,686aa7edb38bfd09fe6284f9,3,truck,medium,#FF5733,,,,,,,,,,,,,,"[""down"",""down"",""right"",""up""]",big_car,11,10
1,,,,4,0,"[""up"",""right"",""up"",""right""]",,,"[""reward"",""reward"",""reward"",""reward""]",,7645,686aa9b0bad0290a85eb1070,62e154b0682e270b4acdf5ee,686aa7edb38bfd09fe6284f9,4,truck,medium,#ebeb5e,,,,,,,,,,,,,,"[""up"",""right"",""up"",""right""]",big_car,11,10
1,,,,4,0,"[""left"",""left"",""down"",""right""]",,,"[""reward"",""reward"",""reward"",""reward""]",,25961,686aa9b0bad0290a85eb1070,62e154b0682e270b4acdf5ee,686aa7edb38bfd09fe6284f9,5,small_car,small,#822cd1,,,,,,,,,,,,,,"[""left"",""left"",""down"",""right""]",big_car,11,10
1,,,,4,0,"[""right"",""left"",""down"",""down"",""up"",""right""]",,,"[""reward"",""reward"",""reward"",""reward""]",,10538,686aa9b0bad0290a85eb1070,62e154b0682e270b4acdf5ee,686aa7edb38bfd09fe6284f9,6,truck,medium,#ebeb5e,,,,,,,,,,,,,,"[""right"",""down"",""left"",""down""]",big_car,11,10
1,,,,4,0,"[""up"",""up"",""left"",""down""]",,,"[""reward"",""reward"",""reward"",""reward""]",,19882,686aa9b0bad0290a85eb1070,62e154b0682e270b4acdf5ee,686aa7edb38bfd09fe6284f9,7,small_car,small,#2ca02c,,,,,,,,,,,,,,"[""up"",""left"",""up"",""right""]",big_car,11,10
1,,,,4,0,"[""up"",""up"",""right"",""down""]",,,"[""reward"",""reward"",""reward"",""reward""]",,9290,686aa9b0bad0290a85eb1070,62e154b0682e270b4acdf5ee,686aa7edb38bfd09fe6284f9,8,small_car,small,#ebeb5e,,,,,,,,,,,,,,"[""up"",""up"",""right"",""down""]",big_car,11,10
1,,,,4,0,"[""up"",""right"",""down"",""down"",""right""]",,,"[""reward"",""reward"",""reward"",""reward""]",,7899,686aa9b0bad0290a85eb1070,62e154b0682e270b4acdf5ee,686aa7edb38bfd09fe6284f9,9,small_car,small,#ebeb5e,,,,,,,,,,,,,,"[""right"",""down"",""down"",""right""]",big_car,11,10
1,,,,4,0,"[""left"",""down"",""down"",""up"",""down"",""right"",""left"",""left""]",,,"[""reward"",""reward"",""reward"",""reward""]",,9753,686aa9b0bad0290a85eb1070,62e154b0682e270b4acdf5ee,686aa7edb38bfd09fe6284f9,10,small_car,small,#822cd1,,,,,,,,,,,,,,"[""left"",""down"",""down"",""left""]",big_car,11,10
1,,,,4,0,"[""left"",""down"",""down"",""right""]",,,"[""reward"",""reward"",""reward"",""reward""]",,28094,686aa9b0bad0290a85eb1070,62e154b0682e270b4acdf5ee,686aa7edb38bfd09fe6284f9,11,big_car,big,#2ca02c,,,,,,,,,,,,,,"[""left"",""down"",""down"",""right""]",big_car,11,10
1,,,,4,0,"[""left"",""left"",""up"",""right""]",,,"[""reward"",""reward"",""reward"",""reward""]",,23259,686aa9b0bad0290a85eb1070,62e154b0682e270b4acdf5ee,686aa7edb38bfd09fe6284f9,12,pickup_truck,medium,#2ca02c,,,,,,,,,,,,,,"[""left"",""left"",""up"",""right""]",big_car,11,10
1,,,,4,0,"[""right"",""down"",""down"",""left""]",,,"[""reward"",""reward"",""reward"",""reward""]",,12126,686aa9b0bad0290a85eb1070,62e154b0682e270b4acdf5ee,686aa7edb38bfd09fe6284f9,13,truck,medium,#FF99CC,,,,,,,,,,,,,,"[""right"",""down"",""down"",""left""]",big_car,11,10
1,,,,4,0,"[""down"",""down"",""right"",""right""]",,,"[""reward"",""reward"",""reward"",""reward""]",,3279,686aa9b0bad0290a85eb1070,62e154b0682e270b4acdf5ee,686aa7edb38bfd09fe6284f9,14,truck,medium,#FF99CC,,,,,,,,,,,,,,"[""down"",""down"",""right"",""right""]",big_car,11,10
1,,,,4,0,"[""down"",""down"",""right"",""up""]",,,"[""reward"",""reward"",""reward"",""reward""]",,8735,686aa9b0bad0290a85eb1070,62e154b0682e270b4acdf5ee,686aa7edb38bfd09fe6284f9,15,big_car,big,#FF5733,,,,,,,,,,,,,,"[""down"",""down"",""right"",""up""]",big_car,11,10
1,,,,4,0,"[""up"",""left"",""down"",""down""]",,,"[""reward"",""reward"",""reward"",""reward""]",,3541,686aa9b0bad0290a85eb1070,62e154b0682e270b4acdf5ee,686aa7edb38bfd09fe6284f9,16,big_car,big,#822cd1,,,,,,,,,,,,,,"[""up"",""left"",""down"",""down""]",big_car,11,10
1,,,,4,0,"[""down"",""left"",""up"",""left""]",,,"[""reward"",""reward"",""reward"",""reward""]",,9143,686aa9b0bad0290a85eb1070,62e154b0682e270b4acdf5ee,686aa7edb38bfd09fe6284f9,17,small_car,small,#2ca02c,,,,,,,,,,,,,,"[""down"",""left"",""up"",""left""]",big_car,11,10
1,,,,4,0,"[""right"",""right"",""down"",""left""]",,,"[""reward"",""reward"",""reward"",""reward""]",,8216,686aa9b0bad0290a85eb1070,62e154b0682e270b4acdf5ee,686aa7edb38bfd09fe6284f9,18,pickup_truck,medium,#ebeb5e,,,,,,,,,,,,,,"[""right"",""down"",""right"",""up""]",big_car,11,10
1,,,,4,0,"[""down"",""down"",""right"",""up""]",,,"[""reward"",""reward"",""reward"",""reward""]",,2589,686aa9b0bad0290a85eb1070,62e154b0682e270b4acdf5ee,686aa7edb38bfd09fe6284f9,19,big_car,big,#ebeb5e,,,,,,,,,,,,,,"[""down"",""right"",""down"",""left""]",big_car,11,10
1,,,,4,0,"[""down"",""down"",""right"",""up""]",,,"[""reward"",""reward"",""reward"",""reward""]",,17682,686aa9b0bad0290a85eb1070,62e154b0682e270b4acdf5ee,686aa7edb38bfd09fe6284f9,20,small_car,small,#ebeb5e,,,,,,,,,,,,,,"[""down"",""right"",""down"",""left""]",big_car,11,10
1,,,,4,0,"[""right"",""up"",""up"",""left""]",,,"[""reward"",""reward"",""reward"",""reward""]",,6402,686aa9b0bad0290a85eb1070,62e154b0682e270b4acdf5ee,686aa7edb38bfd09fe6284f9,21,pickup_truck,medium,#ebeb5e,,,,,,,,,,,,,,"[""right"",""up"",""up"",""left""]",big_car,11,10
1,,,,4,0,"[""right"",""down"",""down"",""left""]",,,"[""reward"",""reward"",""reward"",""reward""]",,4203,686aa9b0bad0290a85eb1070,62e154b0682e270b4acdf5ee,686aa7edb38bfd09fe6284f9,22,truck,medium,#FF5733,,,,,,,,,,,,,,"[""right"",""down"",""down"",""left""]",big_car,11,10
1,,,,4,0,"[""up"",""left"",""left"",""down""]",,,"[""reward"",""reward"",""reward"",""reward""]",,4703,686aa9b0bad0290a85eb1070,62e154b0682e270b4acdf5ee,686aa7edb38bfd09fe6284f9,23,pickup_truck,medium,#FF5733,,,,,,,,,,,,,,"[""up"",""left"",""left"",""down""]",big_car,11,10
1,,,,4,0,"[""up"",""left"",""up"",""left""]",,,"[""reward"",""reward"",""reward"",""reward""]",,2090,686aa9b0bad0290a85eb1070,62e154b0682e270b4acdf5ee,686aa7edb38bfd09fe6284f9,24,pickup_truck,medium,#2ca02c,,,,,,,,,,,,,,"[""up"",""left"",""up"",""left""]",big_car,11,10
1,,,,4,0,"[""up"",""up"",""right"",""right""]",,,"[""reward"",""reward"",""reward"",""reward""]",,2974,686aa9b0bad0290a85eb1070,62e154b0682e270b4acdf5ee,686aa7edb38bfd09fe6284f9,25,big_car,big,#ebeb5e,,,,,,,,,,,,,,"[""up"",""up"",""right"",""right""]",big_car,11,10
1,,,,4,0,"[""down"",""left"",""left"",""right"",""left"",""up""]",,,"[""reward"",""reward"",""reward"",""reward""]",,9316,686aa9b0bad0290a85eb1070,62e154b0682e270b4acdf5ee,686aa7edb38bfd09fe6284f9,26,small_car,small,#FF99CC,,,,,,,,,,,,,,"[""down"",""left"",""left"",""up""]",big_car,11,10
1,,,,4,0,"[""down"",""right"",""right"",""up""]",,,"[""reward"",""reward"",""reward"",""reward""]",,3221,686aa9b0bad0290a85eb1070,62e154b0682e270b4acdf5ee,686aa7edb38bfd09fe6284f9,27,big_car,big,#2ca02c,,,,,,,,,,,,,,"[""down"",""right"",""right"",""up""]",big_car,11,10
1,,,,4,0,"[""right"",""right"",""up"",""left""]",,,"[""reward"",""reward"",""reward"",""reward""]",,3320,686aa9b0bad0290a85eb1070,62e154b0682e270b4acdf5ee,686aa7edb38bfd09fe6284f9,28,big_car,big,#822cd1,,,,,,,,,,,,,,"[""right"",""up"",""right"",""down""]",big_car,11,10
1,,,,4,0,"[""right"",""up"",""left"",""left""]",,,"[""reward"",""reward"",""reward"",""reward""]",,4643,686aa9b0bad0290a85eb1070,62e154b0682e270b4acdf5ee,686aa7edb38bfd09fe6284f9,29,truck,medium,#822cd1,,,,,,,,,,,,,,"[""right"",""up"",""left"",""left""]",big_car,11,10
1,,,,4,0,"[""up"",""right"",""right"",""up""]",,,"[""reward"",""reward"",""reward"",""reward""]",,2796,686aa9b0bad0290a85eb1070,62e154b0682e270b4acdf5ee,686aa7edb38bfd09fe6284f9,30,truck,medium,#2ca02c,,,,,,,,,,,,,,"[""up"",""right"",""right"",""up""]",big_car,11,10
1,,,,4,0,"[""right"",""down"",""left"",""left""]",,,"[""reward"",""reward"",""reward"",""reward""]",,3101,686aa9b0bad0290a85eb1070,62e154b0682e270b4acdf5ee,686aa7edb38bfd09fe6284f9,31,big_car,big,#FF5733,,,,,,,,,,,,,,"[""right"",""down"",""left"",""left""]",big_car,11,10
1,,,,4,0,"[""down"",""left"",""left"",""up""]",,,"[""reward"",""reward"",""reward"",""reward""]",,7735,686aa9b0bad0290a85eb1070,62e154b0682e270b4acdf5ee,686aa7edb38bfd09fe6284f9,32,small_car,small,#FF99CC,,,,,,,,,,,,,,"[""down"",""left"",""left"",""up""]",big_car,11,10
1,,,,4,0,"[""left"",""down"",""down"",""right""]",,,"[""reward"",""reward"",""reward"",""reward""]",,3990,686aa9b0bad0290a85eb1070,62e154b0682e270b4acdf5ee,686aa7edb38bfd09fe6284f9,33,truck,medium,#822cd1,,,,,,,,,,,,,,"[""left"",""down"",""down"",""right""]",big_car,11,10
1,,,,4,0,"[""left"",""up"",""up"",""right""]",,,"[""reward"",""reward"",""reward"",""reward""]",,3632,686aa9b0bad0290a85eb1070,62e154b0682e270b4acdf5ee,686aa7edb38bfd09fe6284f9,34,small_car,small,#2ca02c,,,,,,,,,,,,,,"[""left"",""up"",""up"",""right""]",big_car,11,10
1,,,,4,0,"[""down"",""right"",""down"",""right""]",,,"[""reward"",""reward"",""reward"",""reward""]",,4910,686aa9b0bad0290a85eb1070,62e154b0682e270b4acdf5ee,686aa7edb38bfd09fe6284f9,35,big_car,big,#FF99CC,,,,,,,,,,,,,,"[""down"",""right"",""down"",""right""]",big_car,11,10
1,,,,4,0,"[""up"",""right"",""right"",""down"",""up"",""left"",""left""]",,,"[""reward"",""reward"",""reward"",""reward""]",,5455,686aa9b0bad0290a85eb1070,62e154b0682e270b4acdf5ee,686aa7edb38bfd09fe6284f9,36,pickup_truck,medium,#822cd1,,,,,,,,,,,,,,"[""right"",""up"",""left"",""left""]",big_car,11,10
1,,,,4,0,"[""left"",""left"",""down"",""right""]",,,"[""reward"",""reward"",""reward"",""reward""]",,5369,686aa9b0bad0290a85eb1070,62e154b0682e270b4acdf5ee,686aa7edb38bfd09fe6284f9,37,truck,medium,#2ca02c,,,,,,,,,,,,,,"[""left"",""down"",""left"",""up""]",big_car,11,10
1,,,,4,0,"[""right"",""down"",""left"",""left""]",,,"[""reward"",""reward"",""reward"",""reward""]",,2778,686aa9b0bad0290a85eb1070,62e154b0682e270b4acdf5ee,686aa7edb38bfd09fe6284f9,38,truck,medium,#FF99CC,,,,,,,,,,,,,,"[""right"",""down"",""left"",""left""]",big_car,11,10
1,,,,4,0,"[""down"",""down"",""left"",""up""]",,,"[""reward"",""reward"",""reward"",""reward""]",,3068,686aa9b0bad0290a85eb1070,62e154b0682e270b4acdf5ee,686aa7edb38bfd09fe6284f9,39,small_car,small,#FF99CC,,,,,,,,,,,,,,"[""down"",""down"",""left"",""up""]",big_car,11,10
1,,,,4,0,"[""down"",""left"",""down"",""up"",""left""]",,,"[""reward"",""reward"",""reward"",""reward""]",,8893,686aa9b0bad0290a85eb1070,62e154b0682e270b4acdf5ee,686aa7edb38bfd09fe6284f9,40,truck,medium,#2ca02c,,,,,,,,,,,,,,"[""down"",""left"",""up"",""left""]",big_car,11,10
1,,,,4,0,"[""up"",""left"",""left"",""up""]",,,"[""reward"",""reward"",""reward"",""reward""]",,2910,686aa9b0bad0290a85eb1070,62e154b0682e270b4acdf5ee,686aa7edb38bfd09fe6284f9,41,big_car,big,#2ca02c,,,,,,,,,,,,,,"[""up"",""left"",""left"",""up""]",big_car,11,10
1,,,,4,0,"[""down"",""right"",""up"",""right""]",,,"[""reward"",""reward"",""reward"",""reward""]",,4442,686aa9b0bad0290a85eb1070,62e154b0682e270b4acdf5ee,686aa7edb38bfd09fe6284f9,42,pickup_truck,medium,#822cd1,,,,,,,,,,,,,,"[""down"",""right"",""up"",""right""]",big_car,11,10
1,,,,4,0,"[""right"",""up"",""left"",""left""]",,,"[""reward"",""reward"",""reward"",""reward""]",,3919,686aa9b0bad0290a85eb1070,62e154b0682e270b4acdf5ee,686aa7edb38bfd09fe6284f9,43,pickup_truck,medium,#FF99CC,,,,,,,,,,,,,,"[""right"",""up"",""left"",""left""]",big_car,11,10
1,,,,4,0,"[""down"",""down"",""left"",""up""]",,,"[""reward"",""reward"",""reward"",""reward""]",,2929,686aa9b0bad0290a85eb1070,62e154b0682e270b4acdf5ee,686aa7edb38bfd09fe6284f9,44,pickup_truck,medium,#FF99CC,,,,,,,,,,,,,,"[""down"",""left"",""down"",""right""]",big_car,11,10
1,,,,4,0,"[""right"",""down"",""left"",""left""]",,,"[""reward"",""reward"",""reward"",""reward""]",,3312,686aa9b0bad0290a85eb1070,62e154b0682e270b4acdf5ee,686aa7edb38bfd09fe6284f9,45,truck,medium,#822cd1,,,,,,,,,,,,,,"[""right"",""down"",""left"",""left""]",big_car,11,10
1,,,,4,0,"[""left"",""down"",""down"",""right""]",,,"[""reward"",""reward"",""reward"",""reward""]",,4035,686aa9b0bad0290a85eb1070,62e154b0682e270b4acdf5ee,686aa7edb38bfd09fe6284f9,46,big_car,big,#822cd1,,,,,,,,,,,,,,"[""left"",""down"",""down"",""right""]",big_car,11,10
1,,,,4,0,"[""right"",""up"",""up"",""left""]",,,"[""reward"",""reward"",""reward"",""reward""]",,4597,686aa9b0bad0290a85eb1070,62e154b0682e270b4acdf5ee,686aa7edb38bfd09fe6284f9,47,big_car,big,#FF99CC,,,,,,,,,,,,,,"[""right"",""up"",""up"",""left""]",big_car,11,10
1,,,,4,0,"[""up"",""up"",""right"",""down""]",,,"[""reward"",""reward"",""reward"",""reward""]",,3432,686aa9b0bad0290a85eb1070,62e154b0682e270b4acdf5ee,686aa7edb38bfd09fe6284f9,48,truck,medium,#FF5733,,,,,,,,,,,,,,"[""up"",""right"",""up"",""left""]",big_car,11,10
1,,,,4,0,"[""left"",""left"",""up"",""up""]",,,"[""reward"",""reward"",""reward"",""reward""]",,2052,686aa9b0bad0290a85eb1070,62e154b0682e270b4acdf5ee,686aa7edb38bfd09fe6284f9,49,small_car,small,#822cd1,,,,,,,,,,,,,,"[""left"",""left"",""up"",""up""]",big_car,11,10
1,,,,4,0,"[""right"",""down"",""left"",""left""]",,,"[""reward"",""reward"",""reward"",""reward""]",,4816,686aa9b0bad0290a85eb1070,62e154b0682e270b4acdf5ee,686aa7edb38bfd09fe6284f9,50,pickup_truck,medium,#FF99CC,,,,,,,,,,,,,,"[""right"",""down"",""left"",""left""]",big_car,11,10
1,,,,4,0,"[""right"",""right"",""down"",""left""]",,,"[""reward"",""reward"",""reward"",""reward""]",,3940,686aa9b0bad0290a85eb1070,62e154b0682e270b4acdf5ee,686aa7edb38bfd09fe6284f9,51,pickup_truck,medium,#FF5733,,,,,,,,,,,,,,"[""right"",""right"",""down"",""left""]",big_car,11,10
1,,,,4,0,"[""left"",""left"",""down"",""right""]",,,"[""reward"",""reward"",""reward"",""reward""]",,3871,686aa9b0bad0290a85eb1070,62e154b0682e270b4acdf5ee,686aa7edb38bfd09fe6284f9,52,truck,medium,#ebeb5e,,,,,,,,,,,,,,"[""left"",""down"",""left"",""up""]",big_car,11,10
1,,,,4,0,"[""down"",""left"",""left"",""up""]",,,"[""reward"",""reward"",""reward"",""reward""]",,3147,686aa9b0bad0290a85eb1070,62e154b0682e270b4acdf5ee,686aa7edb38bfd09fe6284f9,53,small_car,small,#FF5733,,,,,,,,,,,,,,"[""down"",""left"",""left"",""up""]",big_car,11,10
1,,,,4,0,"[""left"",""left"",""up"",""up""]",,,"[""reward"",""reward"",""reward"",""reward""]",,2153,686aa9b0bad0290a85eb1070,62e154b0682e270b4acdf5ee,686aa7edb38bfd09fe6284f9,54,big_car,big,#FF99CC,,,,,,,,,,,,,,"[""left"",""left"",""up"",""up""]",big_car,11,10
1,,,,4,0,"[""up"",""right"",""down"",""down""]",,,"[""reward"",""reward"",""reward"",""reward""]",,2887,686aa9b0bad0290a85eb1070,62e154b0682e270b4acdf5ee,686aa7edb38bfd09fe6284f9,55,pickup_truck,medium,#2ca02c,,,,,,,,,,,,,,"[""up"",""right"",""down"",""down""]",big_car,11,10
1,,,,4,0,"[""left"",""down"",""right"",""right""]",,,"[""reward"",""reward"",""reward"",""reward""]",,3401,686aa9b0bad0290a85eb1070,62e154b0682e270b4acdf5ee,686aa7edb38bfd09fe6284f9,56,pickup_truck,medium,#822cd1,,,,,,,,,,,,,,"[""left"",""down"",""right"",""right""]",big_car,11,10
1,,,,4,0,"[""left"",""left"",""up"",""right""]",,,"[""reward"",""reward"",""reward"",""reward""]",,3419,686aa9b0bad0290a85eb1070,62e154b0682e270b4acdf5ee,686aa7edb38bfd09fe6284f9,57,small_car,small,#FF5733,,,,,,,,,,,,,,"[""left"",""left"",""up"",""right""]",big_car,11,10
1,,,,4,0,"[""right"",""up"",""left"",""left""]",,,"[""reward"",""reward"",""reward"",""reward""]",,3040,686aa9b0bad0290a85eb1070,62e154b0682e270b4acdf5ee,686aa7edb38bfd09fe6284f9,58,pickup_truck,medium,#ebeb5e,,,,,,,,,,,,,,"[""right"",""up"",""left"",""left""]",big_car,11,10
1,,,,4,0,"[""down"",""down"",""left"",""left""]",,,"[""reward"",""reward"",""reward"",""reward""]",,2720,686aa9b0bad0290a85eb1070,62e154b0682e270b4acdf5ee,686aa7edb38bfd09fe6284f9,59,small_car,small,#FF5733,,,,,,,,,,,,,,"[""down"",""down"",""left"",""left""]",big_car,11,10
1,,,,4,0,"[""left"",""left"",""down"",""down""]",,,"[""reward"",""reward"",""reward"",""reward""]",,2274,686aa9b0bad0290a85eb1070,62e154b0682e270b4acdf5ee,686aa7edb38bfd09fe6284f9,60,big_car,big,#ebeb5e,,,,,,,,,,,,,,"[""left"",""left"",""down"",""down""]",big_car,11,10
2,,1751822358970,"[{""direction"":""up"",""keyPressed"":""e"",""time"":13211},{""direction"":""up"",""keyPressed"":""e"",""time"":13211}]",0,0,,[],,"[""empty"",""obstacle"",""reward"",""empty""]",1751822372181,13211,686aa9b0bad0290a85eb1070,62e154b0682e270b4acdf5ee,686aa7edb38bfd09fe6284f9,1,medium_car,medium,#33FF57,xeez,13211,xeez,rightupupleft,4,4,2,2,,,2,2,second-order,"[""right"",""up"",""up"",""left""]",big_car,11,10
2,,1751822372588,[],0,0,,[],,"[""empty"",""empty"",""empty"",""empty""]",1751822390758,18170,686aa9b0bad0290a85eb1070,62e154b0682e270b4acdf5ee,686aa7edb38bfd09fe6284f9,2,dump_truck,medium,#e02319,uuty,18169,uuty,rightrightupleft,4,4,1,3,,,-3,-3,second-order,"[""right"",""right"",""up"",""left""]",big_car,11,10
2,,1751822391167,"[{""direction"":""up"",""keyPressed"":""e"",""time"":15657},{""direction"":""left"",""keyPressed"":""q"",""time"":15657},{""direction"":""down"",""keyPressed"":""c"",""time"":15657},{""direction"":""down"",""keyPressed"":""c"",""time"":15657}]",0,0,,[],,"[""reward"",""reward"",""reward"",""reward""]",1751822406825,15658,686aa9b0bad0290a85eb1070,62e154b0682e270b4acdf5ee,686aa7edb38bfd09fe6284f9,3,small_car,small,#e02319,eqcc,15657,eqcc,upleftdowndown,4,4,3,1,3,1,0,0,first-order,"[""up"",""left"",""down"",""down""]",big_car,11,10
2,,1751822407230,[],0,0,,[],,"[""empty"",""empty"",""empty"",""empty""]",1751822422744,15514,686aa9b0bad0290a85eb1070,62e154b0682e270b4acdf5ee,686aa7edb38bfd09fe6284f9,4,dump_truck,medium,#dbc7f0,tuub,15514,tuub,uprightrightdown,4,4,2,2,,,-2,-2,second-order,"[""up"",""right"",""right"",""down""]",big_car,11,10
2,,1751822423159,"[{""direction"":""down"",""keyPressed"":""c"",""time"":17497},{""direction"":""down"",""keyPressed"":""c"",""time"":17497}]",0,0,,[],,"[""empty"",""empty"",""reward"",""empty""]",1751822440657,17498,686aa9b0bad0290a85eb1070,62e154b0682e270b4acdf5ee,686aa7edb38bfd09fe6284f9,5,medium_car,medium,#33C1FF,zccx,17497,zccx,leftdowndownright,4,4,2,2,,,2,2,second-order,"[""left"",""down"",""down"",""right""]",big_car,11,10
2,,1751822441071,"[{""direction"":""right"",""keyPressed"":""x"",""time"":6515},{""direction"":""down"",""keyPressed"":""c"",""time"":6515},{""direction"":""down"",""keyPressed"":""c"",""time"":6515},{""direction"":""left"",""keyPressed"":""z"",""time"":6515}]",0,0,,[],,"[""reward"",""reward"",""reward"",""reward""]",1751822447587,6516,686aa9b0bad0290a85eb1070,62e154b0682e270b4acdf5ee,686aa7edb38bfd09fe6284f9,6,big_car,big,#dbc7f0,xccz,6515,xccz,rightdowndownleft,4,4,2,2,2,2,0,0,first-order,"[""right"",""down"",""down"",""left""]",big_car,11,10
2,,1751822447988,"[{""direction"":""up"",""keyPressed"":""t"",""time"":8961},{""direction"":""up"",""keyPressed"":""t"",""time"":8961},{""direction"":""right"",""keyPressed"":""m"",""time"":8961},{""direction"":""right"",""keyPressed"":""m"",""time"":8961}]",0,0,,[],,"[""reward"",""reward"",""reward"",""reward""]",1751822456950,8962,686aa9b0bad0290a85eb1070,62e154b0682e270b4acdf5ee,686aa7edb38bfd09fe6284f9,7,truck,medium,#33C1FF,ttmm,8961,ttmm,upuprightright,4,4,2,2,2,2,0,0,first-order,"[""up"",""up"",""right"",""right""]",big_car,11,10
2,,1751822457352,"[{""direction"":""up"",""keyPressed"":""e"",""time"":14772},{""direction"":""up"",""keyPressed"":""e"",""time"":14772},{""direction"":""down"",""keyPressed"":""c"",""time"":14772}]",0,0,,[],,"[""reward"",""reward"",""empty"",""empty""]",1751822472125,14773,686aa9b0bad0290a85eb1070,62e154b0682e270b4acdf5ee,686aa7edb38bfd09fe6284f9,8,medium_car,medium,#ad5d24,eezc,14772,eezc,upupleftdown,4,4,3,1,,,1,1,second-order,"[""up"",""up"",""left"",""down""]",big_car,11,10
2,,1751822472530,"[{""direction"":""left"",""keyPressed"":""z"",""time"":8371},{""direction"":""left"",""keyPressed"":""z"",""time"":8371},{""direction"":""up"",""keyPressed"":""e"",""time"":8371},{""direction"":""right"",""keyPressed"":""x"",""time"":8371}]",0,0,,[],,"[""reward"",""reward"",""reward"",""reward""]",1751822480901,8371,686aa9b0bad0290a85eb1070,62e154b0682e270b4acdf5ee,686aa7edb38bfd09fe6284f9,9,big_car,big,#33FF57,zzex,8371,zzex,leftleftupright,4,1,0,1,0,1,0,0,first-order,"[""left"",""up"",""left"",""down""]",big_car,11,10
2,,1751822481312,"[{""direction"":""down"",""keyPressed"":""c"",""time"":8277},{""direction"":""right"",""keyPressed"":""x"",""time"":8277},{""direction"":""up"",""keyPressed"":""e"",""time"":8277},{""direction"":""right"",""keyPressed"":""x"",""time"":8277}]",0,0,,[],,"[""reward"",""reward"",""reward"",""reward""]",1751822489590,8278,686aa9b0bad0290a85eb1070,62e154b0682e270b4acdf5ee,686aa7edb38bfd09fe6284f9,10,big_car,big,#ad5d24,cxex,8277,cxex,downrightupright,4,4,2,2,2,2,0,0,first-order,"[""down"",""right"",""up"",""right""]",big_car,11,10
2,,1751822489995,"[{""direction"":""up"",""keyPressed"":""e"",""time"":12089},{""direction"":""down"",""keyPressed"":""c"",""time"":12089}]",0,0,,[],,"[""reward"",""empty"",""empty"",""empty""]",1751822502084,12089,686aa9b0bad0290a85eb1070,62e154b0682e270b4acdf5ee,686aa7edb38bfd09fe6284f9,11,medium_car,medium,#2c0eb5,ezcz,12089,ezcz,upleftdownleft,4,4,2,2,,,2,2,second-order,"[""up"",""left"",""down"",""left""]",big_car,11,10
2,,1751822502489,"[{""direction"":""up"",""keyPressed"":""t"",""time"":14325},{""direction"":""right"",""keyPressed"":""u"",""time"":14325},{""direction"":""down"",""keyPressed"":""b"",""time"":14325},{""direction"":""right"",""keyPressed"":""u"",""time"":14325}]",0,0,,[],,"[""reward"",""reward"",""reward"",""reward""]",1751822516815,14326,686aa9b0bad0290a85eb1070,62e154b0682e270b4acdf5ee,686aa7edb38bfd09fe6284f9,12,pickup_truck,medium,#33C1FF,tubu,14325,tubu,uprightdownright,4,4,2,2,2,2,0,0,first-order,"[""up"",""right"",""down"",""right""]",big_car,11,10
2,,1751822517222,"[{""direction"":""down"",""keyPressed"":""b"",""time"":4742},{""direction"":""down"",""keyPressed"":""b"",""time"":4742},{""direction"":""left"",""keyPressed"":""y"",""time"":4742},{""direction"":""left"",""keyPressed"":""y"",""time"":4742}]",0,0,,[],,"[""reward"",""reward"",""reward"",""reward""]",1751822521964,4742,686aa9b0bad0290a85eb1070,62e154b0682e270b4acdf5ee,686aa7edb38bfd09fe6284f9,13,pickup_truck,medium,#ad5d24,bbyy,4742,bbyy,downdownleftleft,4,4,2,2,2,2,0,0,first-order,"[""down"",""down"",""left"",""left""]",big_car,11,10
2,,1751822522368,"[{""direction"":""up"",""keyPressed"":""e"",""time"":7026},{""direction"":""up"",""keyPressed"":""e"",""time"":7026},{""direction"":""down"",""keyPressed"":""c"",""time"":7026}]",0,0,,[],,"[""reward"",""reward"",""empty"",""empty""]",1751822529394,7026,686aa9b0bad0290a85eb1070,62e154b0682e270b4acdf5ee,686aa7edb38bfd09fe6284f9,14,medium_car,medium,#e02319,eexc,7026,eexc,upuprightdown,4,4,3,1,,,1,1,second-order,"[""up"",""up"",""right"",""down""]",big_car,11,10
2,,1751822529799,"[{""direction"":""up"",""keyPressed"":""t"",""time"":7136},{""direction"":""right"",""keyPressed"":""u"",""time"":7137},{""direction"":""down"",""keyPressed"":""b"",""time"":7137},{""direction"":""down"",""keyPressed"":""b"",""time"":7137}]",0,0,,[],,"[""reward"",""reward"",""reward"",""reward""]",1751822536936,7137,686aa9b0bad0290a85eb1070,62e154b0682e270b4acdf5ee,686aa7edb38bfd09fe6284f9,15,pickup_truck,medium,#e02319,tubb,7137,tubb,uprightdowndown,4,4,3,1,3,1,0,0,first-order,"[""up"",""right"",""down"",""down""]",big_car,11,10
2,,1751822537348,[],0,0,,[],,"[""empty"",""empty"",""empty"",""empty""]",1751822552743,15395,686aa9b0bad0290a85eb1070,62e154b0682e270b4acdf5ee,686aa7edb38bfd09fe6284f9,16,dump_truck,medium,#33FF57,byyt,15395,byyt,downleftleftup,4,4,2,2,,,-2,-2,second-order,"[""down"",""left"",""left"",""up""]",big_car,11,10
2,,1751822553145,"[{""direction"":""up"",""keyPressed"":""e"",""time"":11077},{""direction"":""left"",""keyPressed"":""q"",""time"":11077},{""direction"":""left"",""keyPressed"":""q"",""time"":11077},{""direction"":""down"",""keyPressed"":""c"",""time"":11077}]",0,0,,[],,"[""reward"",""reward"",""reward"",""reward""]",1751822564222,11077,686aa9b0bad0290a85eb1070,62e154b0682e270b4acdf5ee,686aa7edb38bfd09fe6284f9,17,small_car,small,#ad5d24,eqqc,11077,eqqc,upleftleftdown,4,4,2,2,2,2,0,0,first-order,"[""up"",""left"",""left"",""down""]",big_car,11,10
2,,1751822564624,"[{""direction"":""down"",""keyPressed"":""b"",""time"":9607},{""direction"":""right"",""keyPressed"":""m"",""time"":9607},{""direction"":""right"",""keyPressed"":""m"",""time"":9607},{""direction"":""down"",""keyPressed"":""b"",""time"":9607}]",0,0,,[],,"[""reward"",""reward"",""reward"",""reward""]",1751822574231,9607,686aa9b0bad0290a85eb1070,62e154b0682e270b4acdf5ee,686aa7edb38bfd09fe6284f9,18,truck,medium,#2c0eb5,bmmb,9607,bmmb,downrightrightdown,4,4,2,2,2,2,0,0,first-order,"[""down"",""right"",""right"",""down""]",big_car,11,10
2,,1751822574638,[],0,0,,[],,"[""empty"",""empty"",""empty"",""empty""]",1751822593169,18531,686aa9b0bad0290a85eb1070,62e154b0682e270b4acdf5ee,686aa7edb38bfd09fe6284f9,19,dump_truck,medium,#2c0eb5,ttyb,18531,ttyb,upupleftdown,4,1,1,0,,,-1,0,second-order,"[""up"",""left"",""up"",""right""]",big_car,11,10
2,,1751822593584,"[{""direction"":""right"",""keyPressed"":""m"",""time"":9151},{""direction"":""up"",""keyPressed"":""t"",""time"":9151},{""direction"":""up"",""keyPressed"":""t"",""time"":9151},{""direction"":""left"",""keyPressed"":""n"",""time"":9151}]",0,0,,[],,"[""reward"",""reward"",""reward"",""reward""]",1751822602736,9152,686aa9b0bad0290a85eb1070,62e154b0682e270b4acdf5ee,686aa7edb38bfd09fe6284f9,20,truck,medium,#33FF57,mttn,9151,mttn,rightupupleft,4,4,2,2,2,2,0,0,first-order,"[""right"",""up"",""up"",""left""]",big_car,11,10
2,,1751822603148,[],0,0,,[],,"[""empty"",""empty"",""empty"",""empty""]",1751822613244,10096,686aa9b0bad0290a85eb1070,62e154b0682e270b4acdf5ee,686aa7edb38bfd09fe6284f9,21,dump_truck,medium,#33C1FF,ttyb,10096,ttyb,upupleftdown,4,1,1,0,,,-1,0,second-order,"[""up"",""left"",""up"",""right""]",big_car,11,10
2,,1751822613646,"[{""direction"":""up"",""keyPressed"":""e"",""time"":7826},{""direction"":""down"",""keyPressed"":""c"",""time"":7826},{""direction"":""down"",""keyPressed"":""c"",""time"":7826}]",0,0,,[],,"[""reward"",""empty"",""empty"",""empty""]",1751822621472,7826,686aa9b0bad0290a85eb1070,62e154b0682e270b4acdf5ee,686aa7edb38bfd09fe6284f9,22,medium_car,medium,#dbc7f0,excc,7826,excc,uprightdowndown,4,4,3,1,,,1,1,second-order,"[""up"",""right"",""down"",""down""]",big_car,11,10
2,,1751822621876,"[{""direction"":""up"",""keyPressed"":""e"",""time"":8172},{""direction"":""up"",""keyPressed"":""e"",""time"":8172},{""direction"":""left"",""keyPressed"":""q"",""time"":8172},{""direction"":""down"",""keyPressed"":""c"",""time"":8172}]",0,0,,[],,"[""reward"",""reward"",""reward"",""reward""]",1751822630048,8172,686aa9b0bad0290a85eb1070,62e154b0682e270b4acdf5ee,686aa7edb38bfd09fe6284f9,23,small_car,small,#dbc7f0,eeqc,8172,eeqc,upupleftdown,4,4,3,1,3,1,0,0,first-order,"[""up"",""up"",""left"",""down""]",big_car,11,10
2,,1751822630458,[],0,0,,[],,"[""empty"",""empty"",""empty"",""empty""]",1751822639994,9536,686aa9b0bad0290a85eb1070,62e154b0682e270b4acdf5ee,686aa7edb38bfd09fe6284f9,24,dump_truck,medium,#ad5d24,tybb,9536,tybb,upleftdowndown,4,4,3,1,,,-1,-1,second-order,"[""up"",""left"",""down"",""down""]",big_car,11,10
0,"{""type"":""truck"",""size"":""medium"",""upKey"":""e"",""downKey"":""c"",""leftKey"":""q"",""rightKey"":""w"",""keys"":{""up"":""t"",""down"":""b"",""left"":""n"",""right"":""m""},""color"":""#822cd1"",""x"":1,""y"":2}",1751821191760,"[{""direction"":""left"",""fromPosition"":{""x"":2,""y"":0},""toPosition"":{""x"":1,""y"":0},""time"":36628},{""direction"":""down"",""fromPosition"":{""x"":1,""y"":0},""toPosition"":{""x"":1,""y"":1},""time"":39338},{""direction"":""left"",""fromPosition"":{""x"":1,""y"":1},""toPosition"":{""x"":0,""y"":1},""time"":41859},{""direction"":""down"",""fromPosition"":{""x"":0,""y"":1},""toPosition"":{""x"":0,""y"":2},""time"":42691}]",2,0,"[""left"",""down"",""left"",""down""]","[{""key"":""q"",""direction"":""left"",""rt"":36628,""time"":36628},{""key"":""c"",""direction"":""down"",""rt"":2710,""time"":39338},{""key"":""q"",""direction"":""left"",""rt"":2521,""time"":41859},{""key"":""c"",""direction"":""down"",""rt"":832,""time"":42691}]",1751821234451,"[""reward"",""reward""]",1751821234456,42696,686aaa0bc0a7cb99a0488001,5c5ca0ce4ee81200018eaf51,686aa7edb38bfd09fe6284f9,,,,,,,,,,,,,,,,,,[],truck,14,10
1,,,,4,0,"[""up"",""left"",""left"",""up""]",,,"[""reward"",""reward"",""reward"",""reward""]",,18645,686aaa0bc0a7cb99a0488001,5c5ca0ce4ee81200018eaf51,686aa7edb38bfd09fe6284f9,1,big_car,big,#2ca02c,,,,,,,,,,,,,,"[""up"",""left"",""left"",""up""]",truck,14,10
1,,,,4,0,"[""right"",""right"",""down"",""left""]",,,"[""reward"",""reward"",""reward"",""reward""]",,10707,686aaa0bc0a7cb99a0488001,5c5ca0ce4ee81200018eaf51,686aa7edb38bfd09fe6284f9,2,pickup_truck,medium,#FF99CC,,,,,,,,,,,,,,"[""right"",""right"",""down"",""left""]",truck,14,10
1,,,,4,0,"[""up"",""left"",""down"",""down""]",,,"[""reward"",""reward"",""reward"",""reward""]",,10388,686aaa0bc0a7cb99a0488001,5c5ca0ce4ee81200018eaf51,686aa7edb38bfd09fe6284f9,3,pickup_truck,medium,#FF99CC,,,,,,,,,,,,,,"[""up"",""left"",""down"",""down""]",truck,14,10
1,,,,4,0,"[""down"",""left"",""left"",""up""]",,,"[""reward"",""reward"",""reward"",""reward""]",,7844,686aaa0bc0a7cb99a0488001,5c5ca0ce4ee81200018eaf51,686aa7edb38bfd09fe6284f9,4,small_car,small,#FF5733,,,,,,,,,,,,,,"[""down"",""left"",""left"",""up""]",truck,14,10
1,,,,4,0,"[""right"",""up"",""left"",""left""]",,,"[""reward"",""reward"",""reward"",""reward""]",,8011,686aaa0bc0a7cb99a0488001,5c5ca0ce4ee81200018eaf51,686aa7edb38bfd09fe6284f9,5,truck,medium,#2ca02c,,,,,,,,,,,,,,"[""right"",""up"",""left"",""left""]",truck,14,10
1,,,,4,0,"[""up"",""right"",""down"",""down""]",,,"[""reward"",""reward"",""reward"",""reward""]",,16075,686aaa0bc0a7cb99a0488001,5c5ca0ce4ee81200018eaf51,686aa7edb38bfd09fe6284f9,6,pickup_truck,medium,#ebeb5e,,,,,,,,,,,,,,"[""up"",""right"",""down"",""down""]",truck,14,10
1,,,,4,0,"[""right"",""down"",""left"",""down""]",,,"[""reward"",""reward"",""reward"",""reward""]",,9411,686aaa0bc0a7cb99a0488001,5c5ca0ce4ee81200018eaf51,686aa7edb38bfd09fe6284f9,7,truck,medium,#ebeb5e,,,,,,,,,,,,,,"[""right"",""down"",""left"",""down""]",truck,14,10
1,,,,4,0,"[""left"",""down"",""down"",""left""]",,,"[""reward"",""reward"",""reward"",""reward""]",,10863,686aaa0bc0a7cb99a0488001,5c5ca0ce4ee81200018eaf51,686aa7edb38bfd09fe6284f9,8,small_car,small,#2ca02c,,,,,,,,,,,,,,"[""left"",""down"",""down"",""left""]",truck,14,10
1,,,,4,0,"[""down"",""down"",""right"",""right""]",,,"[""reward"",""reward"",""reward"",""reward""]",,5354,686aaa0bc0a7cb99a0488001,5c5ca0ce4ee81200018eaf51,686aa7edb38bfd09fe6284f9,9,truck,medium,#FF5733,,,,,,,,,,,,,,"[""down"",""down"",""right"",""right""]",truck,14,10
1,,,,4,0,"[""right"",""up"",""left"",""left""]",,,"[""reward"",""reward"",""reward"",""reward""]",,8286,686aaa0bc0a7cb99a0488001,5c5ca0ce4ee81200018eaf51,686aa7edb38bfd09fe6284f9,10,pickup_truck,medium,#822cd1,,,,,,,,,,,,,,"[""right"",""up"",""left"",""left""]",truck,14,10
1,,,,4,0,"[""right"",""down"",""down"",""left""]",,,"[""reward"",""reward"",""reward"",""reward""]",,5925,686aaa0bc0a7cb99a0488001,5c5ca0ce4ee81200018eaf51,686aa7edb38bfd09fe6284f9,11,truck,medium,#2ca02c,,,,,,,,,,,,,,"[""right"",""down"",""down"",""left""]",truck,14,10
1,,,,4,0,"[""up"",""up"",""right"",""down""]",,,"[""reward"",""reward"",""reward"",""reward""]",,8147,686aaa0bc0a7cb99a0488001,5c5ca0ce4ee81200018eaf51,686aa7edb38bfd09fe6284f9,12,truck,medium,#FF99CC,,,,,,,,,,,,,,"[""up"",""right"",""up"",""left""]",truck,14,10
1,,,,4,0,"[""right"",""right"",""down"",""left""]",,,"[""reward"",""reward"",""reward"",""reward""]",,27750,686aaa0bc0a7cb99a0488001,5c5ca0ce4ee81200018eaf51,686aa7edb38bfd09fe6284f9,13,pickup_truck,medium,#ebeb5e,,,,,,,,,,,,,,"[""right"",""down"",""right"",""up""]",truck,14,10
1,,,,4,0,"[""left"",""down"",""down"",""right""]",,,"[""reward"",""reward"",""reward"",""reward""]",,7575,686aaa0bc0a7cb99a0488001,5c5ca0ce4ee81200018eaf51,686aa7edb38bfd09fe6284f9,14,truck,medium,#FF5733,,,,,,,,,,,,,,"[""left"",""down"",""down"",""right""]",truck,14,10
1,,,,4,0,"[""right"",""down"",""left"",""left""]",,,"[""reward"",""reward"",""reward"",""reward""]",,5833,686aaa0bc0a7cb99a0488001,5c5ca0ce4ee81200018eaf51,686aa7edb38bfd09fe6284f9,15,pickup_truck,medium,#FF5733,,,,,,,,,,,,,,"[""right"",""down"",""left"",""left""]",truck,14,10
1,,,,4,0,"[""up"",""up"",""right"",""right""]",,,"[""reward"",""reward"",""reward"",""reward""]",,5666,686aaa0bc0a7cb99a0488001,5c5ca0ce4ee81200018eaf51,686aa7edb38bfd09fe6284f9,16,big_car,big,#822cd1,,,,,,,,,,,,,,"[""up"",""up"",""right"",""right""]",truck,14,10
1,,,,4,0,"[""down"",""down"",""left"",""left""]",,,"[""reward"",""reward"",""reward"",""reward""]",,7257,686aaa0bc0a7cb99a0488001,5c5ca0ce4ee81200018eaf51,686aa7edb38bfd09fe6284f9,17,small_car,small,#FF5733,,,,,,,,,,,,,,"[""down"",""down"",""left"",""left""]",truck,14,10
1,,,,4,0,"[""left"",""up"",""up"",""right""]",,,"[""reward"",""reward"",""reward"",""reward""]",,6544,686aaa0bc0a7cb99a0488001,5c5ca0ce4ee81200018eaf51,686aa7edb38bfd09fe6284f9,18,small_car,small,#FF99CC,,,,,,,,,,,,,,"[""left"",""up"",""up"",""right""]",truck,14,10
1,,,,4,0,"[""up"",""left"",""up"",""left""]",,,"[""reward"",""reward"",""reward"",""reward""]",,8952,686aaa0bc0a7cb99a0488001,5c5ca0ce4ee81200018eaf51,686aa7edb38bfd09fe6284f9,19,pickup_truck,medium,#FF5733,,,,,,,,,,,,,,"[""up"",""left"",""up"",""left""]",truck,14,10
1,,,,4,0,"[""down"",""left"",""left"",""up""]",,,"[""reward"",""reward"",""reward"",""reward""]",,6418,686aaa0bc0a7cb99a0488001,5c5ca0ce4ee81200018eaf51,686aa7edb38bfd09fe6284f9,20,small_car,small,#FF99CC,,,,,,,,,,,,,,"[""down"",""left"",""left"",""up""]",truck,14,10
1,,,,4,0,"[""left"",""left"",""up"",""up""]",,,"[""reward"",""reward"",""reward"",""reward""]",,6856,686aaa0bc0a7cb99a0488001,5c5ca0ce4ee81200018eaf51,686aa7edb38bfd09fe6284f9,21,big_car,big,#822cd1,,,,,,,,,,,,,,"[""left"",""left"",""up"",""up""]",truck,14,10
1,,,,4,0,"[""right"",""down"",""left"",""left""]",,,"[""reward"",""reward"",""reward"",""reward""]",,7649,686aaa0bc0a7cb99a0488001,5c5ca0ce4ee81200018eaf51,686aa7edb38bfd09fe6284f9,22,big_car,big,#FF99CC,,,,,,,,,,,,,,"[""right"",""down"",""left"",""left""]",truck,14,10
1,,,,4,0,"[""left"",""up"",""left"",""down""]",,,"[""reward"",""reward"",""reward"",""reward""]",,11856,686aaa0bc0a7cb99a0488001,5c5ca0ce4ee81200018eaf51,686aa7edb38bfd09fe6284f9,23,pickup_truck,medium,#FF5733,,,,,,,,,,,,,,"[""left"",""left"",""up"",""right""]",truck,14,10
1,,,,4,0,"[""left"",""down"",""down"",""right""]",,,"[""reward"",""reward"",""reward"",""reward""]",,7020,686aaa0bc0a7cb99a0488001,5c5ca0ce4ee81200018eaf51,686aa7edb38bfd09fe6284f9,24,big_car,big,#2ca02c,,,,,,,,,,,,,,"[""left"",""down"",""down"",""right""]",truck,14,10
1,,,,4,0,"[""left"",""down"",""right"",""right""]",,,"[""reward"",""reward"",""reward"",""reward""]",,7989,686aaa0bc0a7cb99a0488001,5c5ca0ce4ee81200018eaf51,686aa7edb38bfd09fe6284f9,25,pickup_truck,medium,#ebeb5e,,,,,,,,,,,,,,"[""left"",""down"",""right"",""right""]",truck,14,10
1,,,,4,0,"[""left"",""left"",""down"",""right""]",,,"[""reward"",""reward"",""reward"",""reward""]",,6339,686aaa0bc0a7cb99a0488001,5c5ca0ce4ee81200018eaf51,686aa7edb38bfd09fe6284f9,26,truck,medium,#ebeb5e,,,,,,,,,,,,,,"[""left"",""down"",""left"",""up""]",truck,14,10
1,,,,4,0,"[""up"",""up"",""left"",""down""]",,,"[""reward"",""reward"",""reward"",""reward""]",,8083,686aaa0bc0a7cb99a0488001,5c5ca0ce4ee81200018eaf51,686aa7edb38bfd09fe6284f9,27,small_car,small,#822cd1,,,,,,,,,,,,,,"[""up"",""left"",""up"",""right""]",truck,14,10
1,,,,4,0,"[""left"",""left"",""up"",""up""]",,,"[""reward"",""reward"",""reward"",""reward""]",,5102,686aaa0bc0a7cb99a0488001,5c5ca0ce4ee81200018eaf51,686aa7edb38bfd09fe6284f9,28,small_car,small,#2ca02c,,,,,,,,,,,,,,"[""left"",""left"",""up"",""up""]",truck,14,10
1,,,,4,0,"[""down"",""right"",""up"",""right""]",,,"[""reward"",""reward"",""reward"",""reward""]",,7288,686aaa0bc0a7cb99a0488001,5c5ca0ce4ee81200018eaf51,686aa7edb38bfd09fe6284f9,29,pickup_truck,medium,#822cd1,,,,,,,,,,,,,,"[""down"",""right"",""up"",""right""]",truck,14,10
1,,,,4,0,"[""left"",""left"",""down"",""right""]",,,"[""reward"",""reward"",""reward"",""reward""]",,6526,686aaa0bc0a7cb99a0488001,5c5ca0ce4ee81200018eaf51,686aa7edb38bfd09fe6284f9,30,small_car,small,#ebeb5e,,,,,,,,,,,,,,"[""left"",""left"",""down"",""right""]",truck,14,10
1,,,,4,0,"[""right"",""down"",""left"",""left""]",,,"[""reward"",""reward"",""reward"",""reward""]",,8841,686aaa0bc0a7cb99a0488001,5c5ca0ce4ee81200018eaf51,686aa7edb38bfd09fe6284f9,31,truck,medium,#FF99CC,,,,,,,,,,,,,,"[""right"",""down"",""left"",""left""]",truck,14,10
1,,,,4,0,"[""up"",""left"",""down"",""down""]",,,"[""reward"",""reward"",""reward"",""reward""]",,6510,686aaa0bc0a7cb99a0488001,5c5ca0ce4ee81200018eaf51,686aa7edb38bfd09fe6284f9,32,big_car,big,#FF99CC,,,,,,,,,,,,,,"[""up"",""left"",""down"",""down""]",truck,14,10
1,,,,4,0,"[""down"",""left"",""up"",""left""]",,,"[""reward"",""reward"",""reward"",""reward""]",,8682,686aaa0bc0a7cb99a0488001,5c5ca0ce4ee81200018eaf51,686aa7edb38bfd09fe6284f9,33,small_car,small,#FF99CC,,,,,,,,,,,,,,"[""down"",""left"",""up"",""left""]",truck,14,10
1,,,,4,0,"[""down"",""down"",""right"",""up""]",,,"[""reward"",""reward"",""reward"",""reward""]",,8983,686aaa0bc0a7cb99a0488001,5c5ca0ce4ee81200018eaf51,686aa7edb38bfd09fe6284f9,34,truck,medium,#ebeb5e,,,,,,,,,,,,,,"[""down"",""down"",""right"",""up""]",truck,14,10
1,,,,4,0,"[""left"",""left"",""down"",""right""]",,,"[""reward"",""reward"",""reward"",""reward""]",,7159,686aaa0bc0a7cb99a0488001,5c5ca0ce4ee81200018eaf51,686aa7edb38bfd09fe6284f9,35,truck,medium,#FF99CC,,,,,,,,,,,,,,"[""left"",""down"",""left"",""up""]",truck,14,10
1,,,,4,0,"[""up"",""up"",""right"",""down""]",,,"[""reward"",""reward"",""reward"",""reward""]",,7134,686aaa0bc0a7cb99a0488001,5c5ca0ce4ee81200018eaf51,686aa7edb38bfd09fe6284f9,36,small_car,small,#FF5733,,,,,,,,,,,,,,"[""up"",""up"",""right"",""down""]",truck,14,10
1,,,,4,0,"[""down"",""down"",""right"",""up""]",,,"[""reward"",""reward"",""reward"",""reward""]",,7713,686aaa0bc0a7cb99a0488001,5c5ca0ce4ee81200018eaf51,686aa7edb38bfd09fe6284f9,37,big_car,big,#FF5733,,,,,,,,,,,,,,"[""down"",""down"",""right"",""up""]",truck,14,10
1,,,,4,0,"[""right"",""up"",""up"",""left""]",,,"[""reward"",""reward"",""reward"",""reward""]",,5896,686aaa0bc0a7cb99a0488001,5c5ca0ce4ee81200018eaf51,686aa7edb38bfd09fe6284f9,38,pickup_truck,medium,#2ca02c,,,,,,,,,,,,,,"[""right"",""up"",""up"",""left""]",truck,14,10
1,,,,4,0,"[""right"",""down"",""down"",""left""]",,,"[""reward"",""reward"",""reward"",""reward""]",,5911,686aaa0bc0a7cb99a0488001,5c5ca0ce4ee81200018eaf51,686aa7edb38bfd09fe6284f9,39,truck,medium,#822cd1,,,,,,,,,,,,,,"[""right"",""down"",""down"",""left""]",truck,14,10
1,,,,4,0,"[""right"",""up"",""left"",""left""]",,,"[""reward"",""reward"",""reward"",""reward""]",,7097,686aaa0bc0a7cb99a0488001,5c5ca0ce4ee81200018eaf51,686aa7edb38bfd09fe6284f9,40,pickup_truck,medium,#822cd1,,,,,,,,,,,,,,"[""right"",""up"",""left"",""left""]",truck,14,10
1,,,,4,0,"[""down"",""down"",""left"",""up""]",,,"[""reward"",""reward"",""reward"",""reward""]",,6268,686aaa0bc0a7cb99a0488001,5c5ca0ce4ee81200018eaf51,686aa7edb38bfd09fe6284f9,41,pickup_truck,medium,#2ca02c,,,,,,,,,,,,,,"[""down"",""left"",""down"",""right""]",truck,14,10
1,,,,4,0,"[""left"",""down"",""down"",""right""]",,,"[""reward"",""reward"",""reward"",""reward""]",,6472,686aaa0bc0a7cb99a0488001,5c5ca0ce4ee81200018eaf51,686aa7edb38bfd09fe6284f9,42,big_car,big,#ebeb5e,,,,,,,,,,,,,,"[""left"",""down"",""down"",""right""]",truck,14,10
1,,,,4,0,"[""down"",""left"",""left"",""up""]",,,"[""reward"",""reward"",""reward"",""reward""]",,6233,686aaa0bc0a7cb99a0488001,5c5ca0ce4ee81200018eaf51,686aa7edb38bfd09fe6284f9,43,small_car,small,#822cd1,,,,,,,,,,,,,,"[""down"",""left"",""left"",""up""]",truck,14,10
1,,,,4,0,"[""up"",""left"",""left"",""down""]",,,"[""reward"",""reward"",""reward"",""reward""]",,8809,686aaa0bc0a7cb99a0488001,5c5ca0ce4ee81200018eaf51,686aa7edb38bfd09fe6284f9,44,pickup_truck,medium,#2ca02c,,,,,,,,,,,,,,"[""up"",""left"",""left"",""down""]",truck,14,10
1,,,,4,0,"[""left"",""left"",""down"",""down""]",,,"[""reward"",""reward"",""reward"",""reward""]",,5761,686aaa0bc0a7cb99a0488001,5c5ca0ce4ee81200018eaf51,686aa7edb38bfd09fe6284f9,45,big_car,big,#2ca02c,,,,,,,,,,,,,,"[""left"",""left"",""down"",""down""]",truck,14,10
1,,,,4,0,"[""down"",""left"",""up"",""left""]",,,"[""reward"",""reward"",""reward"",""reward""]",,8117,686aaa0bc0a7cb99a0488001,5c5ca0ce4ee81200018eaf51,686aa7edb38bfd09fe6284f9,46,truck,medium,#822cd1,,,,,,,,,,,,,,"[""down"",""left"",""up"",""left""]",truck,14,10
1,,,,4,0,"[""up"",""right"",""right"",""up""]",,,"[""reward"",""reward"",""reward"",""reward""]",,5917,686aaa0bc0a7cb99a0488001,5c5ca0ce4ee81200018eaf51,686aa7edb38bfd09fe6284f9,47,truck,medium,#FF5733,,,,,,,,,,,,,,"[""up"",""right"",""right"",""up""]",truck,14,10
1,,,,4,0,"[""up"",""right"",""up"",""right""]",,,"[""reward"",""reward"",""reward"",""reward""]",,7407,686aaa0bc0a7cb99a0488001,5c5ca0ce4ee81200018eaf51,686aa7edb38bfd09fe6284f9,48,truck,medium,#2ca02c,,,,,,,,,,,,,,"[""up"",""right"",""up"",""right""]",truck,14,10
1,,,,4,0,"[""down"",""down"",""right"",""up""]",,,"[""reward"",""reward"",""reward"",""reward""]",,7536,686aaa0bc0a7cb99a0488001,5c5ca0ce4ee81200018eaf51,686aa7edb38bfd09fe6284f9,49,big_car,big,#ebeb5e,,,,,,,,,,,,,,"[""down"",""right"",""down"",""left""]",truck,14,10
1,,,,4,0,"[""down"",""right"",""right"",""up""]",,,"[""reward"",""reward"",""reward"",""reward""]",,5916,686aaa0bc0a7cb99a0488001,5c5ca0ce4ee81200018eaf51,686aa7edb38bfd09fe6284f9,50,big_car,big,#ebeb5e,,,,,,,,,,,,,,"[""down"",""right"",""right"",""up""]",truck,14,10
1,,,,4,0,"[""right"",""down"",""down"",""right""]",,,"[""reward"",""reward"",""reward"",""reward""]",,7228,686aaa0bc0a7cb99a0488001,5c5ca0ce4ee81200018eaf51,686aa7edb38bfd09fe6284f9,51,small_car,small,#822cd1,,,,,,,,,,,,,,"[""right"",""down"",""down"",""right""]",truck,14,10
1,,,,4,0,"[""down"",""down"",""right"",""up""]",,,"[""reward"",""reward"",""reward"",""reward""]",,9503,686aaa0bc0a7cb99a0488001,5c5ca0ce4ee81200018eaf51,686aa7edb38bfd09fe6284f9,52,small_car,small,#ebeb5e,,,,,,,,,,,,,,"[""down"",""right"",""down"",""left""]",truck,14,10
1,,,,4,0,"[""right"",""up"",""up"",""left""]",,,"[""reward"",""reward"",""reward"",""reward""]",,6982,686aaa0bc0a7cb99a0488001,5c5ca0ce4ee81200018eaf51,686aa7edb38bfd09fe6284f9,53,big_car,big,#FF5733,,,,,,,,,,,,,,"[""right"",""up"",""up"",""left""]",truck,14,10
1,,,,4,0,"[""up"",""left"",""down"",""down""]",,,"[""reward"",""reward"",""reward"",""reward""]",,5382,686aaa0bc0a7cb99a0488001,5c5ca0ce4ee81200018eaf51,686aa7edb38bfd09fe6284f9,54,big_car,big,#822cd1,,,,,,,,,,,,,,"[""up"",""left"",""down"",""down""]",truck,14,10
1,,,,4,0,"[""right"",""up"",""left"",""left""]",,,"[""reward"",""reward"",""reward"",""reward""]",,6487,686aaa0bc0a7cb99a0488001,5c5ca0ce4ee81200018eaf51,686aa7edb38bfd09fe6284f9,55,pickup_truck,medium,#FF99CC,,,,,,,,,,,,,,"[""right"",""up"",""left"",""left""]",truck,14,10
1,,,,4,0,"[""right"",""right"",""up"",""left""]",,,"[""reward"",""reward"",""reward"",""reward""]",,5976,686aaa0bc0a7cb99a0488001,5c5ca0ce4ee81200018eaf51,686aa7edb38bfd09fe6284f9,56,big_car,big,#FF99CC,,,,,,,,,,,,,,"[""right"",""up"",""right"",""down""]",truck,14,10
1,,,,4,0,"[""down"",""right"",""down"",""right""]",,,"[""reward"",""reward"",""reward"",""reward""]",,7492,686aaa0bc0a7cb99a0488001,5c5ca0ce4ee81200018eaf51,686aa7edb38bfd09fe6284f9,57,big_car,big,#FF5733,,,,,,,,,,,,,,"[""down"",""right"",""down"",""right""]",truck,14,10
1,,,,4,0,"[""down"",""up"",""left"",""left"",""up"",""right""]",,,"[""reward"",""reward"",""reward"",""reward""]",,12713,686aaa0bc0a7cb99a0488001,5c5ca0ce4ee81200018eaf51,686aa7edb38bfd09fe6284f9,58,small_car,small,#ebeb5e,,,,,,,,,,,,,,"[""left"",""left"",""up"",""right""]",truck,14,10
1,,,,4,0,"[""down"",""down"",""left"",""up""]",,,"[""reward"",""reward"",""reward"",""reward""]",,11916,686aaa0bc0a7cb99a0488001,5c5ca0ce4ee81200018eaf51,686aa7edb38bfd09fe6284f9,59,small_car,small,#2ca02c,,,,,,,,,,,,,,"[""down"",""down"",""left"",""up""]",truck,14,10
1,,,,4,0,"[""right"",""down"",""down"",""left""]",,,"[""reward"",""reward"",""reward"",""reward""]",,9528,686aaa0bc0a7cb99a0488001,5c5ca0ce4ee81200018eaf51,686aa7edb38bfd09fe6284f9,60,truck,medium,#822cd1,,,,,,,,,,,,,,"[""right"",""down"",""down"",""left""]",truck,14,10
2,,1751821845948,"[{""direction"":""down"",""keyPressed"":""c"",""time"":45213},{""direction"":""right"",""keyPressed"":""x"",""time"":45213},{""direction"":""right"",""keyPressed"":""x"",""time"":45213}]",0,0,,[],,"[""reward"",""reward"",""empty"",""obstacle""]",1751821891162,45214,686aaa0bc0a7cb99a0488001,5c5ca0ce4ee81200018eaf51,686aa7edb38bfd09fe6284f9,1,big_car,big,#33FF57,cxwx,45213,cxwx,downrightright,3,3,1,2,1,2,0,0,first-order,"[""down"",""right"",""up"",""right""]",truck,14,10
2,,1751821891563,[],0,0,,[],,"[""empty"",""empty"",""empty"",""empty""]",1751821903708,12145,686aaa0bc0a7cb99a0488001,5c5ca0ce4ee81200018eaf51,686aa7edb38bfd09fe6284f9,2,pickup_truck,medium,#33C1FF,ccqq,12144,ccqq,,0,0,0,0,0,0,0,0,first-order,"[""down"",""down"",""left"",""left""]",truck,14,10
2,,1751821904115,[],0,0,,[],,"[""empty"",""empty"",""empty"",""empty""]",1751821927016,22901,686aaa0bc0a7cb99a0488001,5c5ca0ce4ee81200018eaf51,686aa7edb38bfd09fe6284f9,3,pickup_truck,medium,#e02319,wmcc,22900,wmcc,,0,0,0,0,0,0,0,0,first-order,"[""up"",""right"",""down"",""down""]",truck,14,10
2,,1751821927418,"[{""direction"":""up"",""keyPressed"":""e"",""time"":17851},{""direction"":""down"",""keyPressed"":""c"",""time"":17851}]",0,0,,[],,"[""reward"",""empty"",""empty"",""empty""]",1751821945270,17852,686aaa0bc0a7cb99a0488001,5c5ca0ce4ee81200018eaf51,686aa7edb38bfd09fe6284f9,4,medium_car,medium,#33FF57,eqcz,17851,eqcz,upleftdownleft,4,4,2,2,,,0,0,second-order,"[""up"",""left"",""down"",""left""]",truck,14,10
2,,1751821945681,"[{""direction"":""up"",""keyPressed"":""e"",""time"":12563}]",0,0,,[],,"[""empty"",""empty"",""obstacle"",""obstacle""]",1751821958245,12564,686aaa0bc0a7cb99a0488001,5c5ca0ce4ee81200018eaf51,686aa7edb38bfd09fe6284f9,5,big_car,big,#ad5d24,qqem,12563,qqem,up,1,0,0,0,0,0,0,0,first-order,"[""left"",""up"",""left"",""down""]",truck,14,10
2,,1751821958654,[],0,0,,[],,"[""empty"",""empty"",""empty"",""empty""]",1751821978923,20269,686aaa0bc0a7cb99a0488001,5c5ca0ce4ee81200018eaf51,686aa7edb38bfd09fe6284f9,6,dump_truck,medium,#2c0eb5,mmwz,20268,mmwz,rightright,2,2,0,2,,,2,2,second-order,"[""right"",""right"",""up"",""left""]",truck,14,10
2,,1751821979336,"[{""direction"":""down"",""keyPressed"":""c"",""time"":10819},{""direction"":""down"",""keyPressed"":""c"",""time"":10819}]",0,0,,[],,"[""empty"",""empty"",""reward"",""empty""]",1751821990156,10820,686aaa0bc0a7cb99a0488001,5c5ca0ce4ee81200018eaf51,686aa7edb38bfd09fe6284f9,7,medium_car,medium,#e02319,qccx,10819,qccx,leftdowndownright,4,4,2,2,,,0,0,second-order,"[""left"",""down"",""down"",""right""]",truck,14,10
2,,1751821990558,[],0,0,,[],,"[""empty"",""empty"",""empty"",""empty""]",1751822001553,10995,686aaa0bc0a7cb99a0488001,5c5ca0ce4ee81200018eaf51,686aa7edb38bfd09fe6284f9,8,dump_truck,medium,#e02319,xqqe,10994,xqqe,,0,0,0,0,,,0,0,second-order,"[""down"",""left"",""left"",""up""]",truck,14,10
2,,1751822001956,[],0,0,,[],,"[""empty"",""empty"",""empty"",""empty""]",1751822019464,17508,686aaa0bc0a7cb99a0488001,5c5ca0ce4ee81200018eaf51,686aa7edb38bfd09fe6284f9,9,dump_truck,medium,#33FF57,eeqn,17507,eeqn,left,1,0,0,0,,,1,0,second-order,"[""up"",""left"",""up"",""right""]",truck,14,10
2,,1751822019869,[],0,0,,[],,"[""empty"",""empty"",""empty"",""empty""]",1751822034878,15009,686aaa0bc0a7cb99a0488001,5c5ca0ce4ee81200018eaf51,686aa7edb38bfd09fe6284f9,10,dump_truck,medium,#33C1FF,emmc,15008,emmc,rightright,2,2,0,2,,,2,2,second-order,"[""up"",""right"",""right"",""down""]",truck,14,10
2,,1751822035279,"[{""direction"":""up"",""keyPressed"":""e"",""time"":9570},{""direction"":""down"",""keyPressed"":""c"",""time"":9570},{""direction"":""down"",""keyPressed"":""c"",""time"":9570}]",0,0,,[],,"[""reward"",""empty"",""empty"",""empty""]",1751822044850,9571,686aaa0bc0a7cb99a0488001,5c5ca0ce4ee81200018eaf51,686aa7edb38bfd09fe6284f9,11,medium_car,medium,#dbc7f0,emcc,9570,emcc,updowndown,3,3,3,0,,,0,0,second-order,"[""up"",""right"",""down"",""down""]",truck,14,10
2,,1751822045252,[],0,0,,[],,"[""empty"",""empty"",""empty"",""empty""]",1751822064407,19155,686aaa0bc0a7cb99a0488001,5c5ca0ce4ee81200018eaf51,686aa7edb38bfd09fe6284f9,12,medium_car,medium,#33C1FF,ywwq,19154,ywwq,rightrightleft,3,1,0,1,,,-3,-1,second-order,"[""right"",""up"",""up"",""left""]",truck,14,10
2,,1751822064814,"[{""direction"":""right"",""keyPressed"":""x"",""time"":33224},{""direction"":""right"",""keyPressed"":""x"",""time"":33224}]",0,0,,[],,"[""empty"",""reward"",""obstacle"",""obstacle""]",1751822098039,33225,686aaa0bc0a7cb99a0488001,5c5ca0ce4ee81200018eaf51,686aa7edb38bfd09fe6284f9,13,big_car,big,#dbc7f0,mxxq,33224,mxxq,rightright,2,0,0,0,0,0,0,0,first-order,"[""right"",""down"",""down"",""left""]",truck,14,10
2,,1751822098442,"[{""direction"":""up"",""keyPressed"":""e"",""time"":13303},{""direction"":""left"",""keyPressed"":""q"",""time"":13303},{""direction"":""left"",""keyPressed"":""q"",""time"":13303},{""direction"":""down"",""keyPressed"":""c"",""time"":13303}]",0,0,,[],,"[""reward"",""reward"",""reward"",""reward""]",1751822111746,13304,686aaa0bc0a7cb99a0488001,5c5ca0ce4ee81200018eaf51,686aa7edb38bfd09fe6284f9,14,small_car,small,#ad5d24,eqqc,13303,eqqc,upleftleftdown,4,4,2,2,2,2,0,0,first-order,"[""up"",""left"",""left"",""down""]",truck,14,10
2,,1751822112156,"[{""direction"":""right"",""keyPressed"":""m"",""time"":9985},{""direction"":""right"",""keyPressed"":""m"",""time"":9985}]",0,0,,[],,"[""empty"",""empty"",""obstacle"",""obstacle""]",1751822122141,9985,686aaa0bc0a7cb99a0488001,5c5ca0ce4ee81200018eaf51,686aa7edb38bfd09fe6284f9,15,truck,medium,#ad5d24,cmmc,9985,cmmc,rightright,2,2,0,2,0,2,0,0,first-order,"[""down"",""right"",""right"",""down""]",truck,14,10
2,,1751822122552,[],0,0,,[],,"[""empty"",""empty"",""empty"",""empty""]",1751822136399,13847,686aaa0bc0a7cb99a0488001,5c5ca0ce4ee81200018eaf51,686aa7edb38bfd09fe6284f9,16,medium_car,medium,#ad5d24,wwqx,13847,wwqx,rightrightleftright,4,1,0,1,,,-2,-1,second-order,"[""up"",""up"",""left"",""down""]",truck,14,10
2,,1751822136806,[],0,0,,[],,"[""empty"",""empty"",""empty"",""empty""]",1751822149023,12217,686aaa0bc0a7cb99a0488001,5c5ca0ce4ee81200018eaf51,686aa7edb38bfd09fe6284f9,17,dump_truck,medium,#dbc7f0,eeqx,12216,eeqx,,0,0,0,0,,,0,0,second-order,"[""up"",""left"",""up"",""right""]",truck,14,10
2,,1751822149430,[],0,0,,[],,"[""empty"",""empty"",""empty"",""empty""]",1751822169447,20017,686aaa0bc0a7cb99a0488001,5c5ca0ce4ee81200018eaf51,686aa7edb38bfd09fe6284f9,18,medium_car,medium,#2c0eb5,wwmx,20017,wwmx,rightrightright,3,0,0,0,,,-1,0,second-order,"[""up"",""up"",""right"",""down""]",truck,14,10
2,,1751822169857,"[{""direction"":""right"",""keyPressed"":""w"",""time"":7992},{""direction"":""right"",""keyPressed"":""w"",""time"":7992},{""direction"":""left"",""keyPressed"":""q"",""time"":7992}]",0,0,,[],,"[""out_of_bounds_right"",""out_of_bounds_right"",""empty"",""empty""]",1751822177850,7993,686aaa0bc0a7cb99a0488001,5c5ca0ce4ee81200018eaf51,686aa7edb38bfd09fe6284f9,19,small_car,small,#e02319,wwqx,7992,wwqx,rightrightleft,3,1,0,1,0,1,0,0,first-order,"[""up"",""up"",""left"",""down""]",truck,14,10
2,,1751822178256,"[{""direction"":""right"",""keyPressed"":""w"",""time"":10986},{""direction"":""left"",""keyPressed"":""q"",""time"":10986}]",0,0,,[],,"[""out_of_bounds_right"",""reward"",""empty"",""empty""]",1751822189243,10987,686aaa0bc0a7cb99a0488001,5c5ca0ce4ee81200018eaf51,686aa7edb38bfd09fe6284f9,20,small_car,small,#dbc7f0,wqxx,10986,wqxx,rightleft,2,1,0,1,0,1,0,0,first-order,"[""up"",""left"",""down"",""down""]",truck,14,10
2,,1751822189645,[],0,0,,[],,"[""empty"",""empty"",""empty"",""empty""]",1751822200265,10620,686aaa0bc0a7cb99a0488001,5c5ca0ce4ee81200018eaf51,686aa7edb38bfd09fe6284f9,21,dump_truck,medium,#ad5d24,ynmm,10619,ynmm,leftleftrightright,4,1,0,1,,,2,1,second-order,"[""up"",""left"",""down"",""down""]",truck,14,10
2,,1751822200671,"[{""direction"":""right"",""keyPressed"":""m"",""time"":6484},{""direction"":""right"",""keyPressed"":""m"",""time"":6484}]",0,0,,[],,"[""empty"",""empty"",""empty"",""obstacle""]",1751822207155,6484,686aaa0bc0a7cb99a0488001,5c5ca0ce4ee81200018eaf51,686aa7edb38bfd09fe6284f9,22,truck,medium,#2c0eb5,yymm,6484,yymm,rightright,2,2,0,2,0,2,0,0,first-order,"[""up"",""up"",""right"",""right""]",truck,14,10
2,,1751822207565,"[{""direction"":""left"",""keyPressed"":""y"",""time"":11035}]",0,0,,[],,"[""out_of_bounds_left"",""empty"",""empty"",""empty""]",1751822218600,11035,686aaa0bc0a7cb99a0488001,5c5ca0ce4ee81200018eaf51,686aa7edb38bfd09fe6284f9,23,pickup_truck,medium,#2c0eb5,ymnm,11035,ymnm,left,1,0,0,0,0,0,0,0,first-order,"[""up"",""right"",""down"",""right""]",truck,14,10
2,,1751822219005,"[{""direction"":""right"",""keyPressed"":""m"",""time"":7277},{""direction"":""left"",""keyPressed"":""n"",""time"":7277}]",0,0,,[],,"[""reward"",""empty"",""empty"",""empty""]",1751822226282,7277,686aaa0bc0a7cb99a0488001,5c5ca0ce4ee81200018eaf51,686aa7edb38bfd09fe6284f9,24,truck,medium,#33FF57,myyn,7277,myyn,rightleft,2,2,0,2,0,2,0,0,first-order,"[""right"",""up"",""up"",""left""]",truck,14,10
0,"{""type"":""car"",""size"":""big"",""upKey"":""e"",""downKey"":""c"",""leftKey"":""q"",""rightKey"":""w"",""keys"":{""up"":""e"",""down"":""c"",""left"":""z"",""right"":""x""},""color"":""#FF99CC"",""x"":0,""y"":2}",1751821233220,"[{""direction"":""left"",""fromPosition"":{""x"":2,""y"":0},""toPosition"":{""x"":1,""y"":0},""time"":4393},{""direction"":""down"",""fromPosition"":{""x"":1,""y"":0},""toPosition"":{""x"":1,""y"":1},""time"":5252},{""direction"":""left"",""fromPosition"":{""x"":1,""y"":1},""toPosition"":{""x"":0,""y"":1},""time"":5696},{""direction"":""down"",""fromPosition"":{""x"":0,""y"":1},""toPosition"":{""x"":0,""y"":2},""time"":6085}]",2,0,"[""left"",""down"",""left"",""down""]","[{""key"":""q"",""direction"":""left"",""rt"":4393,""time"":4393},{""key"":""c"",""direction"":""down"",""rt"":859,""time"":5252},{""key"":""q"",""direction"":""left"",""rt"":443,""time"":5695},{""key"":""c"",""direction"":""down"",""rt"":390,""time"":6085}]",1751821239305,"[""reward"",""reward""]",1751821239314,6094,686aaa273a192c68eb1c6973,675de3bd64119cef93edfc75,686aa7edb38bfd09fe6284f9,,,,,,,,,,,,,,,,,,[],pickup_truck,9,10
1,,,,4,0,"[""up"",""right"",""right"",""up""]",,,"[""reward"",""reward"",""reward"",""reward""]",,21356,686aaa273a192c68eb1c6973,675de3bd64119cef93edfc75,686aa7edb38bfd09fe6284f9,1,truck,medium,#FF99CC,,,,,,,,,,,,,,"[""up"",""right"",""right"",""up""]",pickup_truck,9,10
1,,,,4,0,"[""right"",""right"",""down"",""left""]",,,"[""reward"",""reward"",""reward"",""reward""]",,18963,686aaa273a192c68eb1c6973,675de3bd64119cef93edfc75,686aa7edb38bfd09fe6284f9,2,pickup_truck,medium,#2ca02c,,,,,,,,,,,,,,"[""right"",""down"",""right"",""up""]",pickup_truck,9,10
1,,,,4,0,"[""down"",""left"",""left"",""up""]",,,"[""reward"",""reward"",""reward"",""reward""]",,18988,686aaa273a192c68eb1c6973,675de3bd64119cef93edfc75,686aa7edb38bfd09fe6284f9,3,small_car,small,#2ca02c,,,,,,,,,,,,,,"[""down"",""left"",""left"",""up""]",pickup_truck,9,10
1,,,,4,0,"[""left"",""down"",""right"",""right""]",,,"[""reward"",""reward"",""reward"",""reward""]",,13085,686aaa273a192c68eb1c6973,675de3bd64119cef93edfc75,686aa7edb38bfd09fe6284f9,4,pickup_truck,medium,#2ca02c,,,,,,,,,,,,,,"[""left"",""down"",""right"",""right""]",pickup_truck,9,10
1,,,,4,0,"[""down"",""right"",""down"",""down"",""up"",""right"",""right"",""down""]",,,"[""reward"",""reward"",""reward"",""reward""]",,15804,686aaa273a192c68eb1c6973,675de3bd64119cef93edfc75,686aa7edb38bfd09fe6284f9,5,big_car,big,#FF99CC,,,,,,,,,,,,,,"[""down"",""right"",""down"",""right""]",pickup_truck,9,10
1,,,,4,0,"[""left"",""up"",""up"",""down"",""up"",""right""]",,,"[""reward"",""reward"",""reward"",""reward""]",,10612,686aaa273a192c68eb1c6973,675de3bd64119cef93edfc75,686aa7edb38bfd09fe6284f9,6,small_car,small,#FF99CC,,,,,,,,,,,,,,"[""left"",""up"",""up"",""right""]",pickup_truck,9,10
1,,,,4,0,"[""down"",""right"",""down"",""left""]",,,"[""reward"",""reward"",""reward"",""reward""]",,11819,686aaa273a192c68eb1c6973,675de3bd64119cef93edfc75,686aa7edb38bfd09fe6284f9,7,big_car,big,#FF5733,,,,,,,,,,,,,,"[""down"",""down"",""right"",""up""]",pickup_truck,9,10
1,,,,4,0,"[""left"",""left"",""down"",""right""]",,,"[""reward"",""reward"",""reward"",""reward""]",,9986,686aaa273a192c68eb1c6973,675de3bd64119cef93edfc75,686aa7edb38bfd09fe6284f9,8,truck,medium,#822cd1,,,,,,,,,,,,,,"[""left"",""down"",""left"",""up""]",pickup_truck,9,10
1,,,,4,0,"[""left"",""down"",""down"",""right""]",,,"[""reward"",""reward"",""reward"",""reward""]",,5399,686aaa273a192c68eb1c6973,675de3bd64119cef93edfc75,686aa7edb38bfd09fe6284f9,9,truck,medium,#FF5733,,,,,,,,,,,,,,"[""left"",""down"",""down"",""right""]",pickup_truck,9,10
1,,,,4,0,"[""right"",""down"",""down"",""left""]",,,"[""reward"",""reward"",""reward"",""reward""]",,4723,686aaa273a192c68eb1c6973,675de3bd64119cef93edfc75,686aa7edb38bfd09fe6284f9,10,truck,medium,#2ca02c,,,,,,,,,,,,,,"[""right"",""down"",""down"",""left""]",pickup_truck,9,10
1,,,,4,0,"[""down"",""down"",""right"",""up""]",,,"[""reward"",""reward"",""reward"",""reward""]",,6151,686aaa273a192c68eb1c6973,675de3bd64119cef93edfc75,686aa7edb38bfd09fe6284f9,11,truck,medium,#2ca02c,,,,,,,,,,,,,,"[""down"",""down"",""right"",""up""]",pickup_truck,9,10
1,,,,4,0,"[""up"",""up"",""left"",""down""]",,,"[""reward"",""reward"",""reward"",""reward""]",,7956,686aaa273a192c68eb1c6973,675de3bd64119cef93edfc75,686aa7edb38bfd09fe6284f9,12,small_car,small,#FF99CC,,,,,,,,,,,,,,"[""up"",""left"",""up"",""right""]",pickup_truck,9,10
1,,,,4,0,"[""left"",""left"",""down"",""down""]",,,"[""reward"",""reward"",""reward"",""reward""]",,4273,686aaa273a192c68eb1c6973,675de3bd64119cef93edfc75,686aa7edb38bfd09fe6284f9,13,big_car,big,#ebeb5e,,,,,,,,,,,,,,"[""left"",""left"",""down"",""down""]",pickup_truck,9,10
1,,,,4,0,"[""up"",""up"",""right"",""down""]",,,"[""reward"",""reward"",""reward"",""reward""]",,6392,686aaa273a192c68eb1c6973,675de3bd64119cef93edfc75,686aa7edb38bfd09fe6284f9,14,pickup_truck,medium,#FF99CC,,,,,,,,,,,,,,"[""up"",""up"",""right"",""down""]",pickup_truck,9,10
1,,,,4,0,"[""right"",""up"",""left"",""left""]",,,"[""reward"",""reward"",""reward"",""reward""]",,3880,686aaa273a192c68eb1c6973,675de3bd64119cef93edfc75,686aa7edb38bfd09fe6284f9,15,pickup_truck,medium,#2ca02c,,,,,,,,,,,,,,"[""right"",""up"",""left"",""left""]",pickup_truck,9,10
1,,,,4,0,"[""down"",""down"",""right"",""up""]",,,"[""reward"",""reward"",""reward"",""reward""]",,8011,686aaa273a192c68eb1c6973,675de3bd64119cef93edfc75,686aa7edb38bfd09fe6284f9,16,big_car,big,#2ca02c,,,,,,,,,,,,,,"[""down"",""right"",""down"",""left""]",pickup_truck,9,10
1,,,,4,0,"[""right"",""up"",""left"",""left""]",,,"[""reward"",""reward"",""reward"",""reward""]",,9681,686aaa273a192c68eb1c6973,675de3bd64119cef93edfc75,686aa7edb38bfd09fe6284f9,17,pickup_truck,medium,#ebeb5e,,,,,,,,,,,,,,"[""right"",""up"",""left"",""left""]",pickup_truck,9,10
1,,,,4,0,"[""right"",""down"",""down"",""right""]",,,"[""reward"",""reward"",""reward"",""reward""]",,7878,686aaa273a192c68eb1c6973,675de3bd64119cef93edfc75,686aa7edb38bfd09fe6284f9,18,small_car,small,#ebeb5e,,,,,,,,,,,,,,"[""right"",""down"",""down"",""right""]",pickup_truck,9,10
1,,,,4,0,"[""left"",""left"",""up"",""up""]",,,"[""reward"",""reward"",""reward"",""reward""]",,5184,686aaa273a192c68eb1c6973,675de3bd64119cef93edfc75,686aa7edb38bfd09fe6284f9,19,big_car,big,#ebeb5e,,,,,,,,,,,,,,"[""left"",""left"",""up"",""up""]",pickup_truck,9,10
1,,,,4,0,"[""right"",""down"",""left"",""left""]",,,"[""reward"",""reward"",""reward"",""reward""]",,6649,686aaa273a192c68eb1c6973,675de3bd64119cef93edfc75,686aa7edb38bfd09fe6284f9,20,truck,medium,#ebeb5e,,,,,,,,,,,,,,"[""right"",""down"",""left"",""left""]",pickup_truck,9,10
1,,,,4,0,"[""right"",""up"",""up"",""left""]",,,"[""reward"",""reward"",""reward"",""reward""]",,7962,686aaa273a192c68eb1c6973,675de3bd64119cef93edfc75,686aa7edb38bfd09fe6284f9,21,pickup_truck,medium,#FF5733,,,,,,,,,,,,,,"[""right"",""up"",""up"",""left""]",pickup_truck,9,10
1,,,,4,0,"[""right"",""up"",""left"",""left""]",,,"[""reward"",""reward"",""reward"",""reward""]",,4971,686aaa273a192c68eb1c6973,675de3bd64119cef93edfc75,686aa7edb38bfd09fe6284f9,22,pickup_truck,medium,#822cd1,,,,,,,,,,,,,,"[""right"",""up"",""left"",""left""]",pickup_truck,9,10
1,,,,4,0,"[""left"",""down"",""down"",""right""]",,,"[""reward"",""reward"",""reward"",""reward""]",,6682,686aaa273a192c68eb1c6973,675de3bd64119cef93edfc75,686aa7edb38bfd09fe6284f9,23,big_car,big,#FF99CC,,,,,,,,,,,,,,"[""left"",""down"",""down"",""right""]",pickup_truck,9,10
1,,,,4,0,"[""right"",""down"",""down"",""left""]",,,"[""reward"",""reward"",""reward"",""reward""]",,6685,686aaa273a192c68eb1c6973,675de3bd64119cef93edfc75,686aa7edb38bfd09fe6284f9,24,truck,medium,#FF5733,,,,,,,,,,,,,,"[""right"",""down"",""down"",""left""]",pickup_truck,9,10
1,,,,4,0,"[""down"",""right"",""right"",""up""]",,,"[""reward"",""reward"",""reward"",""reward""]",,6413,686aaa273a192c68eb1c6973,675de3bd64119cef93edfc75,686aa7edb38bfd09fe6284f9,25,big_car,big,#ebeb5e,,,,,,,,,,,,,,"[""down"",""right"",""right"",""up""]",pickup_truck,9,10
1,,,,4,0,"[""up"",""up"",""right"",""down""]",,,"[""reward"",""reward"",""reward"",""reward""]",,6891,686aaa273a192c68eb1c6973,675de3bd64119cef93edfc75,686aa7edb38bfd09fe6284f9,26,small_car,small,#822cd1,,,,,,,,,,,,,,"[""up"",""up"",""right"",""down""]",pickup_truck,9,10
1,,,,4,0,"[""left"",""left"",""up"",""up""]",,,"[""reward"",""reward"",""reward"",""reward""]",,27945,686aaa273a192c68eb1c6973,675de3bd64119cef93edfc75,686aa7edb38bfd09fe6284f9,27,pickup_truck,medium,#822cd1,,,,,,,,,,,,,,"[""left"",""left"",""up"",""up""]",pickup_truck,9,10
1,,,,4,0,"[""up"",""left"",""left"",""down""]",,,"[""reward"",""reward"",""reward"",""reward""]",,7502,686aaa273a192c68eb1c6973,675de3bd64119cef93edfc75,686aa7edb38bfd09fe6284f9,28,pickup_truck,medium,#FF5733,,,,,,,,,,,,,,"[""up"",""left"",""left"",""down""]",pickup_truck,9,10
1,,,,4,0,"[""right"",""up"",""up"",""left""]",,,"[""reward"",""reward"",""reward"",""reward""]",,7264,686aaa273a192c68eb1c6973,675de3bd64119cef93edfc75,686aa7edb38bfd09fe6284f9,29,big_car,big,#2ca02c,,,,,,,,,,,,,,"[""right"",""up"",""up"",""left""]",pickup_truck,9,10
1,,,,4,0,"[""right"",""down"",""left"",""left""]",,,"[""reward"",""reward"",""reward"",""reward""]",,7283,686aaa273a192c68eb1c6973,675de3bd64119cef93edfc75,686aa7edb38bfd09fe6284f9,30,big_car,big,#2ca02c,,,,,,,,,,,,,,"[""right"",""down"",""left"",""left""]",pickup_truck,9,10
1,,,,4,0,"[""up"",""right"",""down"",""down""]",,,"[""reward"",""reward"",""reward"",""reward""]",,30834,686aaa273a192c68eb1c6973,675de3bd64119cef93edfc75,686aa7edb38bfd09fe6284f9,31,pickup_truck,medium,#FF5733,,,,,,,,,,,,,,"[""up"",""right"",""down"",""down""]",pickup_truck,9,10
1,,,,4,0,"[""down"",""left"",""up"",""left""]",,,"[""reward"",""reward"",""reward"",""reward""]",,17795,686aaa273a192c68eb1c6973,675de3bd64119cef93edfc75,686aa7edb38bfd09fe6284f9,32,small_car,small,#822cd1,,,,,,,,,,,,,,"[""down"",""left"",""up"",""left""]",pickup_truck,9,10
1,,,,4,0,"[""left"",""left"",""down"",""right""]",,,"[""reward"",""reward"",""reward"",""reward""]",,6188,686aaa273a192c68eb1c6973,675de3bd64119cef93edfc75,686aa7edb38bfd09fe6284f9,33,small_car,small,#FF5733,,,,,,,,,,,,,,"[""left"",""left"",""down"",""right""]",pickup_truck,9,10
1,,,,4,0,"[""down"",""down"",""right"",""right""]",,,"[""reward"",""reward"",""reward"",""reward""]",,5149,686aaa273a192c68eb1c6973,675de3bd64119cef93edfc75,686aa7edb38bfd09fe6284f9,34,truck,medium,#2ca02c,,,,,,,,,,,,,,"[""down"",""down"",""right"",""right""]",pickup_truck,9,10
1,,,,4,0,"[""down"",""left"",""left"",""up""]",,,"[""reward"",""reward"",""reward"",""reward""]",,8711,686aaa273a192c68eb1c6973,675de3bd64119cef93edfc75,686aa7edb38bfd09fe6284f9,35,small_car,small,#FF99CC,,,,,,,,,,,,,,"[""down"",""left"",""left"",""up""]",pickup_truck,9,10
1,,,,4,0,"[""left"",""down"",""down"",""right""]",,,"[""reward"",""reward"",""reward"",""reward""]",,21168,686aaa273a192c68eb1c6973,675de3bd64119cef93edfc75,686aa7edb38bfd09fe6284f9,36,big_car,big,#822cd1,,,,,,,,,,,,,,"[""left"",""down"",""down"",""right""]",pickup_truck,9,10
1,,,,4,0,"[""right"",""down"",""left"",""left""]",,,"[""reward"",""reward"",""reward"",""reward""]",,10106,686aaa273a192c68eb1c6973,675de3bd64119cef93edfc75,686aa7edb38bfd09fe6284f9,37,pickup_truck,medium,#ebeb5e,,,,,,,,,,,,,,"[""right"",""down"",""left"",""left""]",pickup_truck,9,10
1,,,,4,0,"[""left"",""down"",""down"",""left""]",,,"[""reward"",""reward"",""reward"",""reward""]",,6413,686aaa273a192c68eb1c6973,675de3bd64119cef93edfc75,686aa7edb38bfd09fe6284f9,38,small_car,small,#822cd1,,,,,,,,,,,,,,"[""left"",""down"",""down"",""left""]",pickup_truck,9,10
1,,,,4,0,"[""right"",""down"",""left"",""down""]",,,"[""reward"",""reward"",""reward"",""reward""]",,18938,686aaa273a192c68eb1c6973,675de3bd64119cef93edfc75,686aa7edb38bfd09fe6284f9,39,truck,medium,#FF99CC,,,,,,,,,,,,,,"[""right"",""down"",""left"",""down""]",pickup_truck,9,10
1,,,,4,0,"[""up"",""left"",""up"",""left""]",,,"[""reward"",""reward"",""reward"",""reward""]",,19134,686aaa273a192c68eb1c6973,675de3bd64119cef93edfc75,686aa7edb38bfd09fe6284f9,40,pickup_truck,medium,#822cd1,,,,,,,,,,,,,,"[""up"",""left"",""up"",""left""]",pickup_truck,9,10
1,,,,4,0,"[""up"",""left"",""down"",""down""]",,,"[""reward"",""reward"",""reward"",""reward""]",,7626,686aaa273a192c68eb1c6973,675de3bd64119cef93edfc75,686aa7edb38bfd09fe6284f9,41,big_car,big,#822cd1,,,,,,,,,,,,,,"[""up"",""left"",""down"",""down""]",pickup_truck,9,10
1,,,,4,0,"[""up"",""up"",""right"",""right""]",,,"[""reward"",""reward"",""reward"",""reward""]",,5767,686aaa273a192c68eb1c6973,675de3bd64119cef93edfc75,686aa7edb38bfd09fe6284f9,42,big_car,big,#822cd1,,,,,,,,,,,,,,"[""up"",""up"",""right"",""right""]",pickup_truck,9,10
1,,,,4,0,"[""right"",""up"",""left"",""left""]",,,"[""reward"",""reward"",""reward"",""reward""]",,6816,686aaa273a192c68eb1c6973,675de3bd64119cef93edfc75,686aa7edb38bfd09fe6284f9,43,truck,medium,#822cd1,,,,,,,,,,,,,,"[""right"",""up"",""left"",""left""]",pickup_truck,9,10
1,,,,4,0,"[""right"",""right"",""up"",""left""]",,,"[""reward"",""reward"",""reward"",""reward""]",,21868,686aaa273a192c68eb1c6973,675de3bd64119cef93edfc75,686aa7edb38bfd09fe6284f9,44,big_car,big,#FF5733,,,,,,,,,,,,,,"[""right"",""up"",""right"",""down""]",pickup_truck,9,10
1,,,,4,0,"[""up"",""left"",""down"",""down""]",,,"[""reward"",""reward"",""reward"",""reward""]",,15379,686aaa273a192c68eb1c6973,675de3bd64119cef93edfc75,686aa7edb38bfd09fe6284f9,45,pickup_truck,medium,#FF99CC,,,,,,,,,,,,,,"[""up"",""left"",""down"",""down""]",pickup_truck,9,10
1,,,,4,0,"[""down"",""left"",""up"",""left""]",,,"[""reward"",""reward"",""reward"",""reward""]",,7983,686aaa273a192c68eb1c6973,675de3bd64119cef93edfc75,686aa7edb38bfd09fe6284f9,46,truck,medium,#ebeb5e,,,,,,,,,,,,,,"[""down"",""left"",""up"",""left""]",pickup_truck,9,10
1,,,,4,0,"[""up"",""right"",""up"",""right""]",,,"[""reward"",""reward"",""reward"",""reward""]",,15732,686aaa273a192c68eb1c6973,675de3bd64119cef93edfc75,686aa7edb38bfd09fe6284f9,47,truck,medium,#FF99CC,,,,,,,,,,,,,,"[""up"",""right"",""up"",""right""]",pickup_truck,9,10
1,,,,4,0,"[""right"",""right"",""down"",""left""]",,,"[""reward"",""reward"",""reward"",""reward""]",,5061,686aaa273a192c68eb1c6973,675de3bd64119cef93edfc75,686aa7edb38bfd09fe6284f9,48,pickup_truck,medium,#ebeb5e,,,,,,,,,,,,,,"[""right"",""right"",""down"",""left""]",pickup_truck,9,10
1,,,,4,0,"[""left"",""left"",""down"",""right""]",,,"[""reward"",""reward"",""reward"",""reward""]",,5390,686aaa273a192c68eb1c6973,675de3bd64119cef93edfc75,686aa7edb38bfd09fe6284f9,49,truck,medium,#FF5733,,,,,,,,,,,,,,"[""left"",""down"",""left"",""up""]",pickup_truck,9,10
1,,,,4,0,"[""left"",""left"",""up"",""up""]",,,"[""reward"",""reward"",""reward"",""reward""]",,6012,686aaa273a192c68eb1c6973,675de3bd64119cef93edfc75,686aa7edb38bfd09fe6284f9,50,small_car,small,#2ca02c,,,,,,,,,,,,,,"[""left"",""left"",""up"",""up""]",pickup_truck,9,10
1,,,,4,0,"[""down"",""down"",""right"",""up""]",,,"[""reward"",""reward"",""reward"",""reward""]",,7717,686aaa273a192c68eb1c6973,675de3bd64119cef93edfc75,686aa7edb38bfd09fe6284f9,51,small_car,small,#FF5733,,,,,,,,,,,,,,"[""down"",""right"",""down"",""left""]",pickup_truck,9,10
1,,,,4,0,"[""down"",""down"",""left"",""left""]",,,"[""reward"",""reward"",""reward"",""reward""]",,3527,686aaa273a192c68eb1c6973,675de3bd64119cef93edfc75,686aa7edb38bfd09fe6284f9,52,small_car,small,#ebeb5e,,,,,,,,,,,,,,"[""down"",""down"",""left"",""left""]",pickup_truck,9,10
1,,,,4,0,"[""down"",""left"",""left"",""up""]",,,"[""reward"",""reward"",""reward"",""reward""]",,4139,686aaa273a192c68eb1c6973,675de3bd64119cef93edfc75,686aa7edb38bfd09fe6284f9,53,small_car,small,#ebeb5e,,,,,,,,,,,,,,"[""down"",""left"",""left"",""up""]",pickup_truck,9,10
1,,,,4,0,"[""down"",""right"",""up"",""right""]",,,"[""reward"",""reward"",""reward"",""reward""]",,6704,686aaa273a192c68eb1c6973,675de3bd64119cef93edfc75,686aa7edb38bfd09fe6284f9,54,pickup_truck,medium,#FF99CC,,,,,,,,,,,,,,"[""down"",""right"",""up"",""right""]",pickup_truck,9,10
1,,,,4,0,"[""right"",""down"",""down"",""left""]",,,"[""reward"",""reward"",""reward"",""reward""]",,7870,686aaa273a192c68eb1c6973,675de3bd64119cef93edfc75,686aa7edb38bfd09fe6284f9,55,truck,medium,#822cd1,,,,,,,,,,,,,,"[""right"",""down"",""down"",""left""]",pickup_truck,9,10
1,,,,4,0,"[""down"",""down"",""left"",""up""]",,,"[""reward"",""reward"",""reward"",""reward""]",,5820,686aaa273a192c68eb1c6973,675de3bd64119cef93edfc75,686aa7edb38bfd09fe6284f9,56,small_car,small,#FF5733,,,,,,,,,,,,,,"[""down"",""down"",""left"",""up""]",pickup_truck,9,10
1,,,,4,0,"[""up"",""left"",""left"",""up""]",,,"[""reward"",""reward"",""reward"",""reward""]",,7763,686aaa273a192c68eb1c6973,675de3bd64119cef93edfc75,686aa7edb38bfd09fe6284f9,57,big_car,big,#FF5733,,,,,,,,,,,,,,"[""up"",""left"",""left"",""up""]",pickup_truck,9,10
1,,,,4,0,"[""up"",""up"",""right"",""down""]",,,"[""reward"",""reward"",""reward"",""reward""]",,6937,686aaa273a192c68eb1c6973,675de3bd64119cef93edfc75,686aa7edb38bfd09fe6284f9,58,truck,medium,#ebeb5e,,,,,,,,,,,,,,"[""up"",""right"",""up"",""left""]",pickup_truck,9,10
