phase,vehicle,startTime,moves,rewardsCollected,obstaclesHit,routeTaken,actions,lastValidKeyTime,hits,endTime,totalTime,sessionId,prolificId,studyId,trial,vehicleType,vehicleSize,vehicleColor,plan_seq,plan_rt_ms,raw_input_seq,translated_seq,valid_generalization,correctness_generalization,correctHL,correctLL,generalized_correctness_topdown,generalized_correctness_leftright,bias_second_order_valid,bias_second_order_correct,type_generalization,optimalRoute,dangerous_vehicle,worry,somatic_anxiety
0,"{""type"":""car"",""size"":""small"",""upKey"":""w"",""downKey"":""x"",""leftKey"":""a"",""rightKey"":""d"",""keys"":{""up"":""w"",""down"":""x"",""left"":""a"",""right"":""d""},""color"":""red"",""x"":0,""y"":2}",1.75199E+12,"[{""direction"":""left"",""fromPosition"":{""x"":2,""y"":0},""toPosition"":{""x"":1,""y"":0},""time"":9121},{""direction"":""down"",""fromPosition"":{""x"":1,""y"":0},""toPosition"":{""x"":1,""y"":1},""time"":9419},{""direction"":""left"",""fromPosition"":{""x"":1,""y"":1},""toPosition"":{""x"":0,""y"":1},""time"":9704},{""direction"":""down"",""fromPosition"":{""x"":0,""y"":1},""toPosition"":{""x"":0,""y"":2},""time"":9929}]",2,0,"[""left"",""down"",""left"",""down""]","[{""key"":""a"",""direction"":""left"",""rt"":9121,""time"":9121},{""key"":""x"",""direction"":""down"",""rt"":298,""time"":9419},{""key"":""a"",""direction"":""left"",""rt"":285,""time"":9704},{""key"":""x"",""direction"":""down"",""rt"":225,""time"":9929}]",1.75199E+12,"[""reward"",""reward""]",1.75199E+12,9932,686d436ff6e46d7e2175abc1,5b90635a877eab0001d7ba9e,686d429798a6ab910e8e7a41,,,,,,,,,,,,,,,,,,[],big_sedan,18,17
1,,,,4,0,"[""down"",""left"",""up"",""left""]",,,"[""reward"",""reward"",""reward"",""reward""]",,7514,686d436ff6e46d7e2175abc1,5b90635a877eab0001d7ba9e,686d429798a6ab910e8e7a41,1,small_sedan,small,#822cd1,,,,,,,,,,,,,,"[""down"",""left"",""up"",""left""]",big_sedan,18,17
1,,,,4,0,"[""up"",""left"",""down"",""down""]",,,"[""reward"",""reward"",""reward"",""reward""]",,11824,686d436ff6e46d7e2175abc1,5b90635a877eab0001d7ba9e,686d429798a6ab910e8e7a41,2,big_sedan,big,#822cd1,,,,,,,,,,,,,,"[""up"",""left"",""down"",""down""]",big_sedan,18,17
1,,,,4,0,"[""right"",""up"",""left"",""left""]",,,"[""reward"",""reward"",""reward"",""reward""]",,7320,686d436ff6e46d7e2175abc1,5b90635a877eab0001d7ba9e,686d429798a6ab910e8e7a41,3,small_sedan,small,#822cd1,,,,,,,,,,,,,,"[""right"",""up"",""left"",""left""]",big_sedan,18,17
1,,,,4,0,"[""left"",""left"",""up"",""up""]",,,"[""reward"",""reward"",""reward"",""reward""]",,5296,686d436ff6e46d7e2175abc1,5b90635a877eab0001d7ba9e,686d429798a6ab910e8e7a41,4,small_car,small,#2ca02c,,,,,,,,,,,,,,"[""left"",""left"",""up"",""up""]",big_sedan,18,17
1,,,,4,0,"[""down"",""down"",""right"",""up""]",,,"[""reward"",""reward"",""reward"",""reward""]",,10304,686d436ff6e46d7e2175abc1,5b90635a877eab0001d7ba9e,686d429798a6ab910e8e7a41,5,big_car,big,#822cd1,,,,,,,,,,,,,,"[""down"",""right"",""down"",""left""]",big_sedan,18,17
1,,,,4,0,"[""up"",""right"",""up"",""right""]",,,"[""reward"",""reward"",""reward"",""reward""]",,5507,686d436ff6e46d7e2175abc1,5b90635a877eab0001d7ba9e,686d429798a6ab910e8e7a41,6,small_sedan,small,#822cd1,,,,,,,,,,,,,,"[""up"",""right"",""up"",""right""]",big_sedan,18,17
1,,,,4,0,"[""down"",""down"",""right"",""up""]",,,"[""reward"",""reward"",""reward"",""reward""]",,7350,686d436ff6e46d7e2175abc1,5b90635a877eab0001d7ba9e,686d429798a6ab910e8e7a41,7,small_car,small,#2ca02c,,,,,,,,,,,,,,"[""down"",""right"",""down"",""left""]",big_sedan,18,17
1,,,,4,0,"[""right"",""up"",""up"",""left""]",,,"[""reward"",""reward"",""reward"",""reward""]",,9361,686d436ff6e46d7e2175abc1,5b90635a877eab0001d7ba9e,686d429798a6ab910e8e7a41,8,big_sedan,big,#822cd1,,,,,,,,,,,,,,"[""right"",""up"",""up"",""left""]",big_sedan,18,17
1,,,,4,0,"[""right"",""up"",""left"",""left""]",,,"[""reward"",""reward"",""reward"",""reward""]",,6148,686d436ff6e46d7e2175abc1,5b90635a877eab0001d7ba9e,686d429798a6ab910e8e7a41,9,big_sedan,big,#822cd1,,,,,,,,,,,,,,"[""right"",""up"",""left"",""left""]",big_sedan,18,17
1,,,,4,0,"[""down"",""right"",""up"",""right""]",,,"[""reward"",""reward"",""reward"",""reward""]",,6484,686d436ff6e46d7e2175abc1,5b90635a877eab0001d7ba9e,686d429798a6ab910e8e7a41,10,big_sedan,big,#822cd1,,,,,,,,,,,,,,"[""down"",""right"",""up"",""right""]",big_sedan,18,17
1,,,,4,0,"[""right"",""down"",""left"",""left""]",,,"[""reward"",""reward"",""reward"",""reward""]",,3030,686d436ff6e46d7e2175abc1,5b90635a877eab0001d7ba9e,686d429798a6ab910e8e7a41,11,big_sedan,big,#822cd1,,,,,,,,,,,,,,"[""right"",""down"",""left"",""left""]",big_sedan,18,17
1,,,,4,0,"[""up"",""up"",""left"",""down""]",,,"[""reward"",""reward"",""reward"",""reward""]",,7472,686d436ff6e46d7e2175abc1,5b90635a877eab0001d7ba9e,686d429798a6ab910e8e7a41,12,small_car,small,#ebeb5e,,,,,,,,,,,,,,"[""up"",""left"",""up"",""right""]",big_sedan,18,17
1,,,,4,0,"[""right"",""right"",""down"",""left""]",,,"[""reward"",""reward"",""reward"",""reward""]",,4740,686d436ff6e46d7e2175abc1,5b90635a877eab0001d7ba9e,686d429798a6ab910e8e7a41,13,big_sedan,big,#822cd1,,,,,,,,,,,,,,"[""right"",""right"",""down"",""left""]",big_sedan,18,17
1,,,,4,0,"[""right"",""down"",""down"",""left""]",,,"[""reward"",""reward"",""reward"",""reward""]",,7951,686d436ff6e46d7e2175abc1,5b90635a877eab0001d7ba9e,686d429798a6ab910e8e7a41,14,small_sedan,small,#822cd1,,,,,,,,,,,,,,"[""right"",""down"",""down"",""left""]",big_sedan,18,17
1,,,,4,0,"[""up"",""left"",""down"",""down""]",,,"[""reward"",""reward"",""reward"",""reward""]",,6376,686d436ff6e46d7e2175abc1,5b90635a877eab0001d7ba9e,686d429798a6ab910e8e7a41,15,big_car,big,#FF99CC,,,,,,,,,,,,,,"[""up"",""left"",""down"",""down""]",big_sedan,18,17
1,,,,4,0,"[""right"",""down"",""down"",""left""]",,,"[""reward"",""reward"",""reward"",""reward""]",,5613,686d436ff6e46d7e2175abc1,5b90635a877eab0001d7ba9e,686d429798a6ab910e8e7a41,16,small_sedan,small,#822cd1,,,,,,,,,,,,,,"[""right"",""down"",""down"",""left""]",big_sedan,18,17
1,,,,4,0,"[""left"",""left"",""up"",""right""]",,,"[""reward"",""reward"",""reward"",""reward""]",,4426,686d436ff6e46d7e2175abc1,5b90635a877eab0001d7ba9e,686d429798a6ab910e8e7a41,17,small_car,small,#ebeb5e,,,,,,,,,,,,,,"[""left"",""left"",""up"",""right""]",big_sedan,18,17
1,,,,4,0,"[""up"",""left"",""up"",""left""]",,,"[""reward"",""reward"",""reward"",""reward""]",,6735,686d436ff6e46d7e2175abc1,5b90635a877eab0001d7ba9e,686d429798a6ab910e8e7a41,18,big_sedan,big,#822cd1,,,,,,,,,,,,,,"[""up"",""left"",""up"",""left""]",big_sedan,18,17
1,,,,4,0,"[""right"",""up"",""left"",""left""]",,,"[""reward"",""reward"",""reward"",""reward""]",,6015,686d436ff6e46d7e2175abc1,5b90635a877eab0001d7ba9e,686d429798a6ab910e8e7a41,19,big_sedan,big,#822cd1,,,,,,,,,,,,,,"[""right"",""up"",""left"",""left""]",big_sedan,18,17
1,,,,4,0,"[""down"",""left"",""up"",""left""]",,,"[""reward"",""reward"",""reward"",""reward""]",,5057,686d436ff6e46d7e2175abc1,5b90635a877eab0001d7ba9e,686d429798a6ab910e8e7a41,20,small_car,small,#822cd1,,,,,,,,,,,,,,"[""down"",""left"",""up"",""left""]",big_sedan,18,17
1,,,,4,0,"[""down"",""left"",""left"",""up""]",,,"[""reward"",""reward"",""reward"",""reward""]",,5371,686d436ff6e46d7e2175abc1,5b90635a877eab0001d7ba9e,686d429798a6ab910e8e7a41,21,small_car,small,#FF99CC,,,,,,,,,,,,,,"[""down"",""left"",""left"",""up""]",big_sedan,18,17
1,,,,4,0,"[""up"",""up"",""right"",""down""]",,,"[""reward"",""reward"",""reward"",""reward""]",,5088,686d436ff6e46d7e2175abc1,5b90635a877eab0001d7ba9e,686d429798a6ab910e8e7a41,22,big_sedan,big,#822cd1,,,,,,,,,,,,,,"[""up"",""up"",""right"",""down""]",big_sedan,18,17
1,,,,4,0,"[""right"",""down"",""left"",""left""]",,,"[""reward"",""reward"",""reward"",""reward""]",,4757,686d436ff6e46d7e2175abc1,5b90635a877eab0001d7ba9e,686d429798a6ab910e8e7a41,23,small_sedan,small,#822cd1,,,,,,,,,,,,,,"[""right"",""down"",""left"",""left""]",big_sedan,18,17
1,,,,4,0,"[""down"",""down"",""left"",""up""]",,,"[""reward"",""reward"",""reward"",""reward""]",,3963,686d436ff6e46d7e2175abc1,5b90635a877eab0001d7ba9e,686d429798a6ab910e8e7a41,24,small_car,small,#ebeb5e,,,,,,,,,,,,,,"[""down"",""down"",""left"",""up""]",big_sedan,18,17
1,,,,4,0,"[""up"",""up"",""right"",""right""]",,,"[""reward"",""reward"",""reward"",""reward""]",,4545,686d436ff6e46d7e2175abc1,5b90635a877eab0001d7ba9e,686d429798a6ab910e8e7a41,25,big_car,big,#FF5733,,,,,,,,,,,,,,"[""up"",""up"",""right"",""right""]",big_sedan,18,17
1,,,,4,0,"[""up"",""left"",""left"",""up""]",,,"[""reward"",""reward"",""reward"",""reward""]",,4307,686d436ff6e46d7e2175abc1,5b90635a877eab0001d7ba9e,686d429798a6ab910e8e7a41,26,big_car,big,#822cd1,,,,,,,,,,,,,,"[""up"",""left"",""left"",""up""]",big_sedan,18,17
1,,,,4,0,"[""left"",""left"",""down"",""right""]",,,"[""reward"",""reward"",""reward"",""reward""]",,5057,686d436ff6e46d7e2175abc1,5b90635a877eab0001d7ba9e,686d429798a6ab910e8e7a41,27,small_car,small,#FF99CC,,,,,,,,,,,,,,"[""left"",""left"",""down"",""right""]",big_sedan,18,17
1,,,,4,0,"[""up"",""right"",""down"",""down""]",,,"[""reward"",""reward"",""reward"",""reward""]",,4786,686d436ff6e46d7e2175abc1,5b90635a877eab0001d7ba9e,686d429798a6ab910e8e7a41,28,big_sedan,big,#822cd1,,,,,,,,,,,,,,"[""up"",""right"",""down"",""down""]",big_sedan,18,17
1,,,,4,0,"[""left"",""down"",""down"",""right""]",,,"[""reward"",""reward"",""reward"",""reward""]",,3929,686d436ff6e46d7e2175abc1,5b90635a877eab0001d7ba9e,686d429798a6ab910e8e7a41,29,big_car,big,#ebeb5e,,,,,,,,,,,,,,"[""left"",""down"",""down"",""right""]",big_sedan,18,17
1,,,,4,0,"[""right"",""right"",""down"",""left""]",,,"[""reward"",""reward"",""reward"",""reward""]",,5085,686d436ff6e46d7e2175abc1,5b90635a877eab0001d7ba9e,686d429798a6ab910e8e7a41,30,big_sedan,big,#822cd1,,,,,,,,,,,,,,"[""right"",""down"",""right"",""up""]",big_sedan,18,17
1,,,,4,0,"[""left"",""left"",""down"",""right""]",,,"[""reward"",""reward"",""reward"",""reward""]",,4847,686d436ff6e46d7e2175abc1,5b90635a877eab0001d7ba9e,686d429798a6ab910e8e7a41,31,small_sedan,small,#822cd1,,,,,,,,,,,,,,"[""left"",""down"",""left"",""up""]",big_sedan,18,17
1,,,,4,0,"[""left"",""down"",""down"",""left""]",,,"[""reward"",""reward"",""reward"",""reward""]",,4757,686d436ff6e46d7e2175abc1,5b90635a877eab0001d7ba9e,686d429798a6ab910e8e7a41,32,small_car,small,#FF5733,,,,,,,,,,,,,,"[""left"",""down"",""down"",""left""]",big_sedan,18,17
1,,,,4,0,"[""down"",""left"",""left"",""up""]",,,"[""reward"",""reward"",""reward"",""reward""]",,4066,686d436ff6e46d7e2175abc1,5b90635a877eab0001d7ba9e,686d429798a6ab910e8e7a41,33,small_car,small,#FF5733,,,,,,,,,,,,,,"[""down"",""left"",""left"",""up""]",big_sedan,18,17
1,,,,4,0,"[""left"",""left"",""down"",""down""]",,,"[""reward"",""reward"",""reward"",""reward""]",,4097,686d436ff6e46d7e2175abc1,5b90635a877eab0001d7ba9e,686d429798a6ab910e8e7a41,34,big_car,big,#2ca02c,,,,,,,,,,,,,,"[""left"",""left"",""down"",""down""]",big_sedan,18,17
1,,,,4,0,"[""up"",""left"",""left"",""down""]",,,"[""reward"",""reward"",""reward"",""reward""]",,6810,686d436ff6e46d7e2175abc1,5b90635a877eab0001d7ba9e,686d429798a6ab910e8e7a41,35,big_sedan,big,#822cd1,,,,,,,,,,,,,,"[""up"",""left"",""left"",""down""]",big_sedan,18,17
1,,,,4,0,"[""down"",""right"",""up"",""up"",""left"",""left""]",,,"[""reward"",""reward"",""reward"",""reward""]",,5853,686d436ff6e46d7e2175abc1,5b90635a877eab0001d7ba9e,686d429798a6ab910e8e7a41,36,big_sedan,big,#822cd1,,,,,,,,,,,,,,"[""right"",""up"",""left"",""left""]",big_sedan,18,17
1,,,,4,0,"[""left"",""left"",""up"",""up""]",,,"[""reward"",""reward"",""reward"",""reward""]",,3254,686d436ff6e46d7e2175abc1,5b90635a877eab0001d7ba9e,686d429798a6ab910e8e7a41,37,big_sedan,big,#822cd1,,,,,,,,,,,,,,"[""left"",""left"",""up"",""up""]",big_sedan,18,17
1,,,,4,0,"[""up"",""up"",""right"",""down""]",,,"[""reward"",""reward"",""reward"",""reward""]",,4996,686d436ff6e46d7e2175abc1,5b90635a877eab0001d7ba9e,686d429798a6ab910e8e7a41,38,small_sedan,small,#822cd1,,,,,,,,,,,,,,"[""up"",""right"",""up"",""left""]",big_sedan,18,17
1,,,,4,0,"[""right"",""down"",""down"",""right""]",,,"[""reward"",""reward"",""reward"",""reward""]",,5191,686d436ff6e46d7e2175abc1,5b90635a877eab0001d7ba9e,686d429798a6ab910e8e7a41,39,small_car,small,#FF5733,,,,,,,,,,,,,,"[""right"",""down"",""down"",""right""]",big_sedan,18,17
1,,,,4,0,"[""right"",""down"",""left"",""left""]",,,"[""reward"",""reward"",""reward"",""reward""]",,4008,686d436ff6e46d7e2175abc1,5b90635a877eab0001d7ba9e,686d429798a6ab910e8e7a41,40,big_car,big,#FF5733,,,,,,,,,,,,,,"[""right"",""down"",""left"",""left""]",big_sedan,18,17
1,,,,4,0,"[""up"",""up"",""right"",""down""]",,,"[""reward"",""reward"",""reward"",""reward""]",,3630,686d436ff6e46d7e2175abc1,5b90635a877eab0001d7ba9e,686d429798a6ab910e8e7a41,41,small_car,small,#822cd1,,,,,,,,,,,,,,"[""up"",""up"",""right"",""down""]",big_sedan,18,17
1,,,,4,0,"[""down"",""down"",""right"",""up""]",,,"[""reward"",""reward"",""reward"",""reward""]",,4713,686d436ff6e46d7e2175abc1,5b90635a877eab0001d7ba9e,686d429798a6ab910e8e7a41,42,big_car,big,#ebeb5e,,,,,,,,,,,,,,"[""down"",""down"",""right"",""up""]",big_sedan,18,17
1,,,,4,0,"[""right"",""down"",""left"",""down""]",,,"[""reward"",""reward"",""reward"",""reward""]",,4607,686d436ff6e46d7e2175abc1,5b90635a877eab0001d7ba9e,686d429798a6ab910e8e7a41,43,small_sedan,small,#822cd1,,,,,,,,,,,,,,"[""right"",""down"",""left"",""down""]",big_sedan,18,17
1,,,,4,0,"[""left"",""down"",""down"",""right""]",,,"[""reward"",""reward"",""reward"",""reward""]",,4621,686d436ff6e46d7e2175abc1,5b90635a877eab0001d7ba9e,686d429798a6ab910e8e7a41,44,small_sedan,small,#822cd1,,,,,,,,,,,,,,"[""left"",""down"",""down"",""right""]",big_sedan,18,17
1,,,,4,0,"[""down"",""down"",""right"",""up""]",,,"[""reward"",""reward"",""reward"",""reward""]",,3708,686d436ff6e46d7e2175abc1,5b90635a877eab0001d7ba9e,686d429798a6ab910e8e7a41,45,small_sedan,small,#822cd1,,,,,,,,,,,,,,"[""down"",""down"",""right"",""up""]",big_sedan,18,17
1,,,,4,0,"[""up"",""left"",""down"",""down""]",,,"[""reward"",""reward"",""reward"",""reward""]",,3840,686d436ff6e46d7e2175abc1,5b90635a877eab0001d7ba9e,686d429798a6ab910e8e7a41,46,big_car,big,#822cd1,,,,,,,,,,,,,,"[""up"",""left"",""down"",""down""]",big_sedan,18,17
1,,,,4,0,"[""up"",""right"",""right"",""up""]",,,"[""reward"",""reward"",""reward"",""reward""]",,4441,686d436ff6e46d7e2175abc1,5b90635a877eab0001d7ba9e,686d429798a6ab910e8e7a41,47,small_sedan,small,#822cd1,,,,,,,,,,,,,,"[""up"",""right"",""right"",""up""]",big_sedan,18,17
1,,,,4,0,"[""left"",""left"",""up"",""up""]",,,"[""reward"",""reward"",""reward"",""reward""]",,7261,686d436ff6e46d7e2175abc1,5b90635a877eab0001d7ba9e,686d429798a6ab910e8e7a41,48,big_car,big,#FF99CC,,,,,,,,,,,,,,"[""left"",""left"",""up"",""up""]",big_sedan,18,17
1,,,,4,0,"[""right"",""down"",""down"",""left""]",,,"[""reward"",""reward"",""reward"",""reward""]",,4218,686d436ff6e46d7e2175abc1,5b90635a877eab0001d7ba9e,686d429798a6ab910e8e7a41,49,small_sedan,small,#822cd1,,,,,,,,,,,,,,"[""right"",""down"",""down"",""left""]",big_sedan,18,17
1,,,,4,0,"[""down"",""right"",""down"",""right""]",,,"[""reward"",""reward"",""reward"",""reward""]",,5790,686d436ff6e46d7e2175abc1,5b90635a877eab0001d7ba9e,686d429798a6ab910e8e7a41,50,big_car,big,#ebeb5e,,,,,,,,,,,,,,"[""down"",""right"",""down"",""right""]",big_sedan,18,17
1,,,,4,0,"[""down"",""down"",""left"",""left""]",,,"[""reward"",""reward"",""reward"",""reward""]",,5252,686d436ff6e46d7e2175abc1,5b90635a877eab0001d7ba9e,686d429798a6ab910e8e7a41,51,small_car,small,#2ca02c,,,,,,,,,,,,,,"[""down"",""down"",""left"",""left""]",big_sedan,18,17
1,,,,4,0,"[""left"",""down"",""down"",""right""]",,,"[""reward"",""reward"",""reward"",""reward""]",,6198,686d436ff6e46d7e2175abc1,5b90635a877eab0001d7ba9e,686d429798a6ab910e8e7a41,52,big_car,big,#2ca02c,,,,,,,,,,,,,,"[""left"",""down"",""down"",""right""]",big_sedan,18,17
1,,,,4,0,"[""down"",""down"",""right"",""right""]",,,"[""reward"",""reward"",""reward"",""reward""]",,4080,686d436ff6e46d7e2175abc1,5b90635a877eab0001d7ba9e,686d429798a6ab910e8e7a41,53,small_sedan,small,#822cd1,,,,,,,,,,,,,,"[""down"",""down"",""right"",""right""]",big_sedan,18,17
1,,,,4,0,"[""right"",""up"",""up"",""left""]",,,"[""reward"",""reward"",""reward"",""reward""]",,3962,686d436ff6e46d7e2175abc1,5b90635a877eab0001d7ba9e,686d429798a6ab910e8e7a41,54,big_car,big,#FF5733,,,,,,,,,,,,,,"[""right"",""up"",""up"",""left""]",big_sedan,18,17
1,,,,4,0,"[""down"",""left"",""left"",""up""]",,,"[""reward"",""reward"",""reward"",""reward""]",,4471,686d436ff6e46d7e2175abc1,5b90635a877eab0001d7ba9e,686d429798a6ab910e8e7a41,55,small_car,small,#822cd1,,,,,,,,,,,,,,"[""down"",""left"",""left"",""up""]",big_sedan,18,17
1,,,,4,0,"[""right"",""right"",""up"",""left""]",,,"[""reward"",""reward"",""reward"",""reward""]",,4650,686d436ff6e46d7e2175abc1,5b90635a877eab0001d7ba9e,686d429798a6ab910e8e7a41,56,big_car,big,#FF99CC,,,,,,,,,,,,,,"[""right"",""up"",""right"",""down""]",big_sedan,18,17
1,,,,4,0,"[""left"",""down"",""right"",""right""]",,,"[""reward"",""reward"",""reward"",""reward""]",,6466,686d436ff6e46d7e2175abc1,5b90635a877eab0001d7ba9e,686d429798a6ab910e8e7a41,57,big_sedan,big,#822cd1,,,,,,,,,,,,,,"[""left"",""down"",""right"",""right""]",big_sedan,18,17
1,,,,4,0,"[""down"",""right"",""right"",""up""]",,,"[""reward"",""reward"",""reward"",""reward""]",,3453,686d436ff6e46d7e2175abc1,5b90635a877eab0001d7ba9e,686d429798a6ab910e8e7a41,58,big_car,big,#2ca02c,,,,,,,,,,,,,,"[""down"",""right"",""right"",""up""]",big_sedan,18,17
1,,,,4,0,"[""left"",""up"",""up"",""right""]",,,"[""reward"",""reward"",""reward"",""reward""]",,3945,686d436ff6e46d7e2175abc1,5b90635a877eab0001d7ba9e,686d429798a6ab910e8e7a41,59,small_car,small,#FF99CC,,,,,,,,,,,,,,"[""left"",""up"",""up"",""right""]",big_sedan,18,17
1,,,,4,0,"[""left"",""left"",""down"",""right""]",,,"[""reward"",""reward"",""reward"",""reward""]",,5147,686d436ff6e46d7e2175abc1,5b90635a877eab0001d7ba9e,686d429798a6ab910e8e7a41,60,small_sedan,small,#822cd1,,,,,,,,,,,,,,"[""left"",""down"",""left"",""up""]",big_sedan,18,17
2,,1.75199E+12,"[{""direction"":""up"",""keyPressed"":""w"",""time"":15990},{""direction"":""left"",""keyPressed"":""a"",""time"":15990},{""direction"":""left"",""keyPressed"":""a"",""time"":15990},{""direction"":""down"",""keyPressed"":""x"",""time"":15990}]",0,0,,[],,"[""reward"",""reward"",""reward"",""reward""]",1.75199E+12,15991,686d436ff6e46d7e2175abc1,5b90635a877eab0001d7ba9e,686d429798a6ab910e8e7a41,1,small_car,small,#dbc7f0,waax,15990,waax,upleftleftdown,4,4,2,2,2,2,0,0,first-order,"[""up"",""left"",""left"",""down""]",big_sedan,18,17
2,,1.75199E+12,[],0,0,,[],,"[""empty"",""empty"",""empty"",""empty""]",1.75199E+12,7174,686d436ff6e46d7e2175abc1,5b90635a877eab0001d7ba9e,686d429798a6ab910e8e7a41,2,medium_sedan,medium,#822cd1,wwax,7173,wwax,,0,0,0,0,,,0,0,second-order,"[""up"",""left"",""up"",""right""]",big_sedan,18,17
2,,1.75199E+12,[],0,0,,[],,"[""empty"",""empty"",""empty"",""empty""]",1.75199E+12,4878,686d436ff6e46d7e2175abc1,5b90635a877eab0001d7ba9e,686d429798a6ab910e8e7a41,3,medium_sedan,medium,#822cd1,waxx,4877,waxx,,0,0,0,0,,,0,0,second-order,"[""up"",""left"",""down"",""down""]",big_sedan,18,17
2,,1.75199E+12,[],0,0,,[],,"[""empty"",""empty"",""empty"",""empty""]",1.75199E+12,5204,686d436ff6e46d7e2175abc1,5b90635a877eab0001d7ba9e,686d429798a6ab910e8e7a41,4,medium_car,medium,#e02319,dwwa,5203,dwwa,rightupupleft,4,4,2,2,,,-4,-4,second-order,"[""right"",""up"",""up"",""left""]",big_sedan,18,17
2,,1.75199E+12,[],0,0,,[],,"[""empty"",""empty"",""empty"",""empty""]",1.75199E+12,4788,686d436ff6e46d7e2175abc1,5b90635a877eab0001d7ba9e,686d429798a6ab910e8e7a41,5,medium_sedan,medium,#822cd1,xaaw,4787,xaaw,,0,0,0,0,,,0,0,second-order,"[""down"",""left"",""left"",""up""]",big_sedan,18,17
2,,1.75199E+12,[],0,0,,[],,"[""empty"",""empty"",""empty"",""empty""]",1.75199E+12,8404,686d436ff6e46d7e2175abc1,5b90635a877eab0001d7ba9e,686d429798a6ab910e8e7a41,6,medium_car,medium,#2c0eb5,wwdx,8403,wwdx,upuprightdown,4,4,3,1,,,-4,-4,second-order,"[""up"",""up"",""right"",""down""]",big_sedan,18,17
2,,1.75199E+12,[],0,0,,[],,"[""empty"",""empty"",""empty"",""empty""]",1.75199E+12,4619,686d436ff6e46d7e2175abc1,5b90635a877eab0001d7ba9e,686d429798a6ab910e8e7a41,7,big_car,big,#e02319,xdwd,4618,xdwd,,0,0,0,0,0,0,0,0,first-order,"[""down"",""right"",""up"",""right""]",big_sedan,18,17
2,,1.75199E+12,[],0,0,,[],,"[""empty"",""empty"",""empty"",""empty""]",1.75199E+12,3589,686d436ff6e46d7e2175abc1,5b90635a877eab0001d7ba9e,686d429798a6ab910e8e7a41,8,small_sedan,small,#822cd1,dwwa,3588,dwwa,,0,0,0,0,0,0,0,0,first-order,"[""right"",""up"",""up"",""left""]",big_sedan,18,17
2,,1.75199E+12,[],0,0,,[],,"[""empty"",""empty"",""empty"",""empty""]",1.75199E+12,4334,686d436ff6e46d7e2175abc1,5b90635a877eab0001d7ba9e,686d429798a6ab910e8e7a41,9,big_sedan,big,#822cd1,wdxx,4333,wdxx,,0,0,0,0,0,0,0,0,first-order,"[""up"",""right"",""down"",""down""]",big_sedan,18,17
2,,1.75199E+12,[],0,0,,[],,"[""empty"",""empty"",""empty"",""empty""]",1.75199E+12,2960,686d436ff6e46d7e2175abc1,5b90635a877eab0001d7ba9e,686d429798a6ab910e8e7a41,10,big_sedan,big,#822cd1,xxaa,2959,xxaa,,0,0,0,0,0,0,0,0,first-order,"[""down"",""down"",""left"",""left""]",big_sedan,18,17
2,,1.75199E+12,"[{""direction"":""up"",""keyPressed"":""w"",""time"":2996},{""direction"":""left"",""keyPressed"":""a"",""time"":2996},{""direction"":""down"",""keyPressed"":""x"",""time"":2996},{""direction"":""down"",""keyPressed"":""x"",""time"":2996}]",0,0,,[],,"[""reward"",""reward"",""reward"",""reward""]",1.75199E+12,2997,686d436ff6e46d7e2175abc1,5b90635a877eab0001d7ba9e,686d429798a6ab910e8e7a41,11,small_car,small,#33C1FF,waxx,2996,waxx,upleftdowndown,4,4,3,1,3,1,0,0,first-order,"[""up"",""left"",""down"",""down""]",big_sedan,18,17
2,,1.75199E+12,[],0,0,,[],,"[""empty"",""empty"",""empty"",""empty""]",1.75199E+12,3151,686d436ff6e46d7e2175abc1,5b90635a877eab0001d7ba9e,686d429798a6ab910e8e7a41,12,medium_car,medium,#dbc7f0,waxa,3150,waxa,upleftdownleft,4,4,2,2,,,-4,-4,second-order,"[""up"",""left"",""down"",""left""]",big_sedan,18,17
2,,1.75199E+12,[],0,0,,[],,"[""empty"",""empty"",""empty"",""empty""]",1.75199E+12,5316,686d436ff6e46d7e2175abc1,5b90635a877eab0001d7ba9e,686d429798a6ab910e8e7a41,13,big_sedan,big,#822cd1,wdxd,5315,wdxd,,0,0,0,0,0,0,0,0,first-order,"[""up"",""right"",""down"",""right""]",big_sedan,18,17
2,,1.75199E+12,[],0,0,,[],,"[""empty"",""empty"",""empty"",""empty""]",1.75199E+12,3026,686d436ff6e46d7e2175abc1,5b90635a877eab0001d7ba9e,686d429798a6ab910e8e7a41,14,medium_car,medium,#33C1FF,wdxx,3025,wdxx,uprightdowndown,4,4,3,1,,,-4,-4,second-order,"[""up"",""right"",""down"",""down""]",big_sedan,18,17
2,,1.75199E+12,"[{""direction"":""up"",""keyPressed"":""w"",""time"":2814},{""direction"":""up"",""keyPressed"":""w"",""time"":2814},{""direction"":""left"",""keyPressed"":""a"",""time"":2814},{""direction"":""down"",""keyPressed"":""x"",""time"":2814}]",0,0,,[],,"[""reward"",""reward"",""reward"",""reward""]",1.75199E+12,2815,686d436ff6e46d7e2175abc1,5b90635a877eab0001d7ba9e,686d429798a6ab910e8e7a41,15,small_car,small,#33FF57,wwax,2814,wwax,upupleftdown,4,4,3,1,3,1,0,0,first-order,"[""up"",""up"",""left"",""down""]",big_sedan,18,17
2,,1.75199E+12,[],0,0,,[],,"[""empty"",""empty"",""empty"",""empty""]",1.75199E+12,3028,686d436ff6e46d7e2175abc1,5b90635a877eab0001d7ba9e,686d429798a6ab910e8e7a41,16,small_sedan,small,#822cd1,xddx,3028,xddx,,0,0,0,0,0,0,0,0,first-order,"[""down"",""right"",""right"",""down""]",big_sedan,18,17
2,,1.75199E+12,[],0,0,,[],,"[""empty"",""empty"",""empty"",""empty""]",1.75199E+12,2745,686d436ff6e46d7e2175abc1,5b90635a877eab0001d7ba9e,686d429798a6ab910e8e7a41,17,small_sedan,small,#822cd1,wwdd,2744,wwdd,,0,0,0,0,0,0,0,0,first-order,"[""up"",""up"",""right"",""right""]",big_sedan,18,17
2,,1.75199E+12,[],0,0,,[],,"[""empty"",""empty"",""empty"",""empty""]",1.75199E+12,2445,686d436ff6e46d7e2175abc1,5b90635a877eab0001d7ba9e,686d429798a6ab910e8e7a41,18,medium_sedan,medium,#822cd1,ddwa,2444,ddwa,,0,0,0,0,,,0,0,second-order,"[""right"",""right"",""up"",""left""]",big_sedan,18,17
2,,1.75199E+12,[],0,0,,[],,"[""empty"",""empty"",""empty"",""empty""]",1.75199E+12,2648,686d436ff6e46d7e2175abc1,5b90635a877eab0001d7ba9e,686d429798a6ab910e8e7a41,19,medium_car,medium,#ad5d24,wwax,2647,wwax,upupleftdown,4,4,3,1,,,-4,-4,second-order,"[""up"",""up"",""left"",""down""]",big_sedan,18,17
2,,1.75199E+12,[],0,0,,[],,"[""empty"",""empty"",""empty"",""empty""]",1.75199E+12,2351,686d436ff6e46d7e2175abc1,5b90635a877eab0001d7ba9e,686d429798a6ab910e8e7a41,20,medium_car,medium,#33FF57,axxd,2350,axxd,leftdowndownright,4,4,2,2,,,-4,-4,second-order,"[""left"",""down"",""down"",""right""]",big_sedan,18,17
2,,1.75199E+12,[],0,0,,[],,"[""empty"",""empty"",""empty"",""empty""]",1.75199E+12,2824,686d436ff6e46d7e2175abc1,5b90635a877eab0001d7ba9e,686d429798a6ab910e8e7a41,21,big_car,big,#dbc7f0,aawd,2823,aawd,,0,0,0,0,0,0,0,0,first-order,"[""left"",""up"",""left"",""down""]",big_sedan,18,17
2,,1.75199E+12,[],0,0,,[],,"[""empty"",""empty"",""empty"",""empty""]",1.75199E+12,3177,686d436ff6e46d7e2175abc1,5b90635a877eab0001d7ba9e,686d429798a6ab910e8e7a41,22,medium_sedan,medium,#822cd1,wwax,3176,wwax,,0,0,0,0,,,0,0,second-order,"[""up"",""left"",""up"",""right""]",big_sedan,18,17
2,,1.75199E+12,[],0,0,,[],,"[""empty"",""empty"",""empty"",""empty""]",1.75199E+12,2884,686d436ff6e46d7e2175abc1,5b90635a877eab0001d7ba9e,686d429798a6ab910e8e7a41,23,medium_sedan,medium,#822cd1,wddx,2883,wddx,,0,0,0,0,,,0,0,second-order,"[""up"",""right"",""right"",""down""]",big_sedan,18,17
2,,1.75199E+12,[],0,0,,[],,"[""empty"",""empty"",""empty"",""empty""]",1.75199E+12,2729,686d436ff6e46d7e2175abc1,5b90635a877eab0001d7ba9e,686d429798a6ab910e8e7a41,24,big_car,big,#ad5d24,dxxa,2728,dxxa,,0,0,0,0,0,0,0,0,first-order,"[""right"",""down"",""down"",""left""]",big_sedan,18,17
0,"{""type"":""car"",""size"":""small"",""upKey"":""w"",""downKey"":""x"",""leftKey"":""a"",""rightKey"":""d"",""keys"":{""up"":""w"",""down"":""x"",""left"":""a"",""right"":""d""},""color"":""red"",""x"":0,""y"":2}",1.75199E+12,"[{""direction"":""down"",""fromPosition"":{""x"":2,""y"":0},""toPosition"":{""x"":2,""y"":1},""time"":40616},{""direction"":""left"",""fromPosition"":{""x"":2,""y"":1},""toPosition"":{""x"":1,""y"":1},""time"":42919},{""direction"":""left"",""fromPosition"":{""x"":1,""y"":1},""toPosition"":{""x"":0,""y"":1},""time"":44942},{""direction"":""down"",""fromPosition"":{""x"":0,""y"":1},""toPosition"":{""x"":0,""y"":2},""time"":47023}]",2,0,"[""down"",""left"",""left"",""down""]","[{""key"":""x"",""direction"":""down"",""rt"":40615,""time"":40615},{""key"":""a"",""direction"":""left"",""rt"":2304,""time"":42919},{""key"":""a"",""direction"":""left"",""rt"":2023,""time"":44942},{""key"":""x"",""direction"":""down"",""rt"":2081,""time"":47023}]",1.75199E+12,"[""reward"",""reward""]",1.75199E+12,47027,686d4373f57523a6c4ec3083,67d95ba74a13b56b96a1e155,686d429798a6ab910e8e7a41,,,,,,,,,,,,,,,,,,[],small_car,15,10
1,,,,4,0,"[""left"",""down"",""right"",""right""]",,,"[""reward"",""reward"",""reward"",""reward""]",,19690,686d4373f57523a6c4ec3083,67d95ba74a13b56b96a1e155,686d429798a6ab910e8e7a41,1,big_sedan,big,#822cd1,,,,,,,,,,,,,,"[""left"",""down"",""right"",""right""]",small_car,15,10
1,,,,4,0,"[""right"",""down"",""down"",""left""]",,,"[""reward"",""reward"",""reward"",""reward""]",,13929,686d4373f57523a6c4ec3083,67d95ba74a13b56b96a1e155,686d429798a6ab910e8e7a41,2,small_sedan,small,#822cd1,,,,,,,,,,,,,,"[""right"",""down"",""down"",""left""]",small_car,15,10
1,,,,4,0,"[""right"",""right"",""down"",""left""]",,,"[""reward"",""reward"",""reward"",""reward""]",,11222,686d4373f57523a6c4ec3083,67d95ba74a13b56b96a1e155,686d429798a6ab910e8e7a41,3,big_sedan,big,#822cd1,,,,,,,,,,,,,,"[""right"",""down"",""right"",""up""]",small_car,15,10
1,,,,4,0,"[""left"",""down"",""down"",""right""]",,,"[""reward"",""reward"",""reward"",""reward""]",,12969,686d4373f57523a6c4ec3083,67d95ba74a13b56b96a1e155,686d429798a6ab910e8e7a41,4,small_sedan,small,#822cd1,,,,,,,,,,,,,,"[""left"",""down"",""down"",""right""]",small_car,15,10
1,,,,4,0,"[""down"",""left"",""up"",""left""]",,,"[""reward"",""reward"",""reward"",""reward""]",,14457,686d4373f57523a6c4ec3083,67d95ba74a13b56b96a1e155,686d429798a6ab910e8e7a41,5,small_car,small,#ebeb5e,,,,,,,,,,,,,,"[""down"",""left"",""up"",""left""]",small_car,15,10
1,,,,4,0,"[""down"",""right"",""down"",""left""]",,,"[""reward"",""reward"",""reward"",""reward""]",,13098,686d4373f57523a6c4ec3083,67d95ba74a13b56b96a1e155,686d429798a6ab910e8e7a41,6,big_car,big,#FF5733,,,,,,,,,,,,,,"[""down"",""right"",""down"",""left""]",small_car,15,10
1,,,,4,0,"[""up"",""up"",""right"",""right""]",,,"[""reward"",""reward"",""reward"",""reward""]",,9024,686d4373f57523a6c4ec3083,67d95ba74a13b56b96a1e155,686d429798a6ab910e8e7a41,7,big_car,big,#ebeb5e,,,,,,,,,,,,,,"[""up"",""up"",""right"",""right""]",small_car,15,10
1,,,,4,0,"[""right"",""up"",""up"",""left""]",,,"[""reward"",""reward"",""reward"",""reward""]",,11712,686d4373f57523a6c4ec3083,67d95ba74a13b56b96a1e155,686d429798a6ab910e8e7a41,8,big_sedan,big,#822cd1,,,,,,,,,,,,,,"[""right"",""up"",""up"",""left""]",small_car,15,10
1,,,,4,0,"[""down"",""down"",""right"",""up""]",,,"[""reward"",""reward"",""reward"",""reward""]",,14695,686d4373f57523a6c4ec3083,67d95ba74a13b56b96a1e155,686d429798a6ab910e8e7a41,9,small_sedan,small,#822cd1,,,,,,,,,,,,,,"[""down"",""down"",""right"",""up""]",small_car,15,10
1,,,,4,0,"[""up"",""left"",""down"",""down""]",,,"[""reward"",""reward"",""reward"",""reward""]",,10780,686d4373f57523a6c4ec3083,67d95ba74a13b56b96a1e155,686d429798a6ab910e8e7a41,10,big_car,big,#2ca02c,,,,,,,,,,,,,,"[""up"",""left"",""down"",""down""]",small_car,15,10
1,,,,4,0,"[""down"",""left"",""up"",""left""]",,,"[""reward"",""reward"",""reward"",""reward""]",,13960,686d4373f57523a6c4ec3083,67d95ba74a13b56b96a1e155,686d429798a6ab910e8e7a41,11,small_sedan,small,#822cd1,,,,,,,,,,,,,,"[""down"",""left"",""up"",""left""]",small_car,15,10
1,,,,4,0,"[""right"",""right"",""down"",""left""]",,,"[""reward"",""reward"",""reward"",""reward""]",,12393,686d4373f57523a6c4ec3083,67d95ba74a13b56b96a1e155,686d429798a6ab910e8e7a41,12,big_sedan,big,#822cd1,,,,,,,,,,,,,,"[""right"",""right"",""down"",""left""]",small_car,15,10
1,,,,4,0,"[""right"",""down"",""down"",""right""]",,,"[""reward"",""reward"",""reward"",""reward""]",,11241,686d4373f57523a6c4ec3083,67d95ba74a13b56b96a1e155,686d429798a6ab910e8e7a41,13,small_car,small,#822cd1,,,,,,,,,,,,,,"[""right"",""down"",""down"",""right""]",small_car,15,10
1,,,,4,0,"[""up"",""right"",""down"",""down""]",,,"[""reward"",""reward"",""reward"",""reward""]",,12161,686d4373f57523a6c4ec3083,67d95ba74a13b56b96a1e155,686d429798a6ab910e8e7a41,14,big_sedan,big,#822cd1,,,,,,,,,,,,,,"[""up"",""right"",""down"",""down""]",small_car,15,10
1,,,,4,0,"[""up"",""up"",""right"",""down""]",,,"[""reward"",""reward"",""reward"",""reward""]",,11526,686d4373f57523a6c4ec3083,67d95ba74a13b56b96a1e155,686d429798a6ab910e8e7a41,15,small_sedan,small,#822cd1,,,,,,,,,,,,,,"[""up"",""right"",""up"",""left""]",small_car,15,10
1,,,,4,0,"[""down"",""left"",""left"",""up""]",,,"[""reward"",""reward"",""reward"",""reward""]",,11341,686d4373f57523a6c4ec3083,67d95ba74a13b56b96a1e155,686d429798a6ab910e8e7a41,16,small_car,small,#822cd1,,,,,,,,,,,,,,"[""down"",""left"",""left"",""up""]",small_car,15,10
1,,,,4,0,"[""up"",""left"",""up"",""left""]",,,"[""reward"",""reward"",""reward"",""reward""]",,13649,686d4373f57523a6c4ec3083,67d95ba74a13b56b96a1e155,686d429798a6ab910e8e7a41,17,big_sedan,big,#822cd1,,,,,,,,,,,,,,"[""up"",""left"",""up"",""left""]",small_car,15,10
1,,,,4,0,"[""right"",""down"",""down"",""left""]",,,"[""reward"",""reward"",""reward"",""reward""]",,8875,686d4373f57523a6c4ec3083,67d95ba74a13b56b96a1e155,686d429798a6ab910e8e7a41,18,small_sedan,small,#822cd1,,,,,,,,,,,,,,"[""right"",""down"",""down"",""left""]",small_car,15,10
1,,,,4,0,"[""right"",""up"",""left"",""left""]",,,"[""reward"",""reward"",""reward"",""reward""]",,8640,686d4373f57523a6c4ec3083,67d95ba74a13b56b96a1e155,686d429798a6ab910e8e7a41,19,big_sedan,big,#822cd1,,,,,,,,,,,,,,"[""right"",""up"",""left"",""left""]",small_car,15,10
1,,,,4,0,"[""down"",""right"",""up"",""right""]",,,"[""reward"",""reward"",""reward"",""reward""]",,11298,686d4373f57523a6c4ec3083,67d95ba74a13b56b96a1e155,686d429798a6ab910e8e7a41,20,big_sedan,big,#822cd1,,,,,,,,,,,,,,"[""down"",""right"",""up"",""right""]",small_car,15,10
1,,,,4,0,"[""down"",""down"",""right"",""right""]",,,"[""reward"",""reward"",""reward"",""reward""]",,8796,686d4373f57523a6c4ec3083,67d95ba74a13b56b96a1e155,686d429798a6ab910e8e7a41,21,small_sedan,small,#822cd1,,,,,,,,,,,,,,"[""down"",""down"",""right"",""right""]",small_car,15,10
1,,,,4,0,"[""down"",""right"",""down"",""left""]",,,"[""reward"",""reward"",""reward"",""reward""]",,14409,686d4373f57523a6c4ec3083,67d95ba74a13b56b96a1e155,686d429798a6ab910e8e7a41,22,small_car,small,#FF5733,,,,,,,,,,,,,,"[""down"",""right"",""down"",""left""]",small_car,15,10
1,,,,4,0,"[""right"",""down"",""left"",""down""]",,,"[""reward"",""reward"",""reward"",""reward""]",,9439,686d4373f57523a6c4ec3083,67d95ba74a13b56b96a1e155,686d429798a6ab910e8e7a41,23,small_sedan,small,#822cd1,,,,,,,,,,,,,,"[""right"",""down"",""left"",""down""]",small_car,15,10
1,,,,4,0,"[""left"",""left"",""up"",""up""]",,,"[""reward"",""reward"",""reward"",""reward""]",,10004,686d4373f57523a6c4ec3083,67d95ba74a13b56b96a1e155,686d429798a6ab910e8e7a41,24,big_sedan,big,#822cd1,,,,,,,,,,,,,,"[""left"",""left"",""up"",""up""]",small_car,15,10
1,,,,4,0,"[""right"",""down"",""left"",""left""]",,,"[""reward"",""reward"",""reward"",""reward""]",,7625,686d4373f57523a6c4ec3083,67d95ba74a13b56b96a1e155,686d429798a6ab910e8e7a41,25,big_sedan,big,#822cd1,,,,,,,,,,,,,,"[""right"",""down"",""left"",""left""]",small_car,15,10
1,,,,4,0,"[""right"",""up"",""left"",""left""]",,,"[""reward"",""reward"",""reward"",""reward""]",,5802,686d4373f57523a6c4ec3083,67d95ba74a13b56b96a1e155,686d429798a6ab910e8e7a41,26,big_sedan,big,#822cd1,,,,,,,,,,,,,,"[""right"",""up"",""left"",""left""]",small_car,15,10
1,,,,4,0,"[""left"",""left"",""down"",""right""]",,,"[""reward"",""reward"",""reward"",""reward""]",,8582,686d4373f57523a6c4ec3083,67d95ba74a13b56b96a1e155,686d429798a6ab910e8e7a41,27,small_sedan,small,#822cd1,,,,,,,,,,,,,,"[""left"",""down"",""left"",""up""]",small_car,15,10
1,,,,4,0,"[""left"",""down"",""down"",""right""]",,,"[""reward"",""reward"",""reward"",""reward""]",,7224,686d4373f57523a6c4ec3083,67d95ba74a13b56b96a1e155,686d429798a6ab910e8e7a41,28,big_car,big,#2ca02c,,,,,,,,,,,,,,"[""left"",""down"",""down"",""right""]",small_car,15,10
1,,,,4,0,"[""left"",""left"",""up"",""right""]",,,"[""reward"",""reward"",""reward"",""reward""]",,9392,686d4373f57523a6c4ec3083,67d95ba74a13b56b96a1e155,686d429798a6ab910e8e7a41,29,small_car,small,#FF99CC,,,,,,,,,,,,,,"[""left"",""left"",""up"",""right""]",small_car,15,10
1,,,,4,0,"[""down"",""left"",""left"",""up""]",,,"[""reward"",""reward"",""reward"",""reward""]",,8022,686d4373f57523a6c4ec3083,67d95ba74a13b56b96a1e155,686d429798a6ab910e8e7a41,30,small_car,small,#822cd1,,,,,,,,,,,,,,"[""down"",""left"",""left"",""up""]",small_car,15,10
1,,,,4,0,"[""down"",""down"",""right"",""up""]",,,"[""reward"",""reward"",""reward"",""reward""]",,9274,686d4373f57523a6c4ec3083,67d95ba74a13b56b96a1e155,686d429798a6ab910e8e7a41,31,big_car,big,#822cd1,,,,,,,,,,,,,,"[""down"",""right"",""down"",""left""]",small_car,15,10
1,,,,4,0,"[""down"",""down"",""left"",""up""]",,,"[""reward"",""reward"",""reward"",""reward""]",,6584,686d4373f57523a6c4ec3083,67d95ba74a13b56b96a1e155,686d429798a6ab910e8e7a41,32,small_car,small,#FF99CC,,,,,,,,,,,,,,"[""down"",""down"",""left"",""up""]",small_car,15,10
1,,,,4,0,"[""up"",""up"",""right"",""down""]",,,"[""reward"",""reward"",""reward"",""reward""]",,6960,686d4373f57523a6c4ec3083,67d95ba74a13b56b96a1e155,686d429798a6ab910e8e7a41,33,small_car,small,#ebeb5e,,,,,,,,,,,,,,"[""up"",""up"",""right"",""down""]",small_car,15,10
1,,,,4,0,"[""right"",""up"",""left"",""left""]",,,"[""reward"",""reward"",""reward"",""reward""]",,7580,686d4373f57523a6c4ec3083,67d95ba74a13b56b96a1e155,686d429798a6ab910e8e7a41,34,small_sedan,small,#822cd1,,,,,,,,,,,,,,"[""right"",""up"",""left"",""left""]",small_car,15,10
1,,,,4,0,"[""down"",""left"",""left"",""up""]",,,"[""reward"",""reward"",""reward"",""reward""]",,6475,686d4373f57523a6c4ec3083,67d95ba74a13b56b96a1e155,686d429798a6ab910e8e7a41,35,small_car,small,#FF5733,,,,,,,,,,,,,,"[""down"",""left"",""left"",""up""]",small_car,15,10
1,,,,4,0,"[""left"",""up"",""up"",""right""]",,,"[""reward"",""reward"",""reward"",""reward""]",,6877,686d4373f57523a6c4ec3083,67d95ba74a13b56b96a1e155,686d429798a6ab910e8e7a41,36,small_car,small,#2ca02c,,,,,,,,,,,,,,"[""left"",""up"",""up"",""right""]",small_car,15,10
1,,,,4,0,"[""down"",""down"",""left"",""left""]",,,"[""reward"",""reward"",""reward"",""reward""]",,7078,686d4373f57523a6c4ec3083,67d95ba74a13b56b96a1e155,686d429798a6ab910e8e7a41,37,small_car,small,#ebeb5e,,,,,,,,,,,,,,"[""down"",""down"",""left"",""left""]",small_car,15,10
1,,,,4,0,"[""up"",""left"",""left"",""down""]",,,"[""reward"",""reward"",""reward"",""reward""]",,8969,686d4373f57523a6c4ec3083,67d95ba74a13b56b96a1e155,686d429798a6ab910e8e7a41,38,big_sedan,big,#822cd1,,,,,,,,,,,,,,"[""up"",""left"",""left"",""down""]",small_car,15,10
1,,,,4,0,"[""left"",""left"",""up"",""up""]",,,"[""reward"",""reward"",""reward"",""reward""]",,7131,686d4373f57523a6c4ec3083,67d95ba74a13b56b96a1e155,686d429798a6ab910e8e7a41,39,small_car,small,#FF5733,,,,,,,,,,,,,,"[""left"",""left"",""up"",""up""]",small_car,15,10
1,,,,4,0,"[""down"",""down"",""left"",""up""]",,,"[""reward"",""reward"",""reward"",""reward""]",,8572,686d4373f57523a6c4ec3083,67d95ba74a13b56b96a1e155,686d429798a6ab910e8e7a41,40,big_sedan,big,#822cd1,,,,,,,,,,,,,,"[""down"",""left"",""down"",""right""]",small_car,15,10
1,,,,4,0,"[""down"",""right"",""right"",""up""]",,,"[""reward"",""reward"",""reward"",""reward""]",,7934,686d4373f57523a6c4ec3083,67d95ba74a13b56b96a1e155,686d429798a6ab910e8e7a41,41,big_car,big,#2ca02c,,,,,,,,,,,,,,"[""down"",""right"",""right"",""up""]",small_car,15,10
1,,,,4,0,"[""left"",""left"",""down"",""right""]",,,"[""reward"",""reward"",""reward"",""reward""]",,6208,686d4373f57523a6c4ec3083,67d95ba74a13b56b96a1e155,686d429798a6ab910e8e7a41,42,small_sedan,small,#822cd1,,,,,,,,,,,,,,"[""left"",""down"",""left"",""up""]",small_car,15,10
1,,,,4,0,"[""right"",""down"",""left"",""left""]",,,"[""reward"",""reward"",""reward"",""reward""]",,5439,686d4373f57523a6c4ec3083,67d95ba74a13b56b96a1e155,686d429798a6ab910e8e7a41,43,small_sedan,small,#822cd1,,,,,,,,,,,,,,"[""right"",""down"",""left"",""left""]",small_car,15,10
1,,,,4,0,"[""left"",""left"",""down"",""down""]",,,"[""reward"",""reward"",""reward"",""reward""]",,5268,686d4373f57523a6c4ec3083,67d95ba74a13b56b96a1e155,686d429798a6ab910e8e7a41,44,big_car,big,#822cd1,,,,,,,,,,,,,,"[""left"",""left"",""down"",""down""]",small_car,15,10
1,,,,4,0,"[""up"",""left"",""down"",""down""]",,,"[""reward"",""reward"",""reward"",""reward""]",,7350,686d4373f57523a6c4ec3083,67d95ba74a13b56b96a1e155,686d429798a6ab910e8e7a41,45,big_car,big,#FF5733,,,,,,,,,,,,,,"[""up"",""left"",""down"",""down""]",small_car,15,10
1,,,,4,0,"[""left"",""left"",""up"",""up""]",,,"[""reward"",""reward"",""reward"",""reward""]",,4941,686d4373f57523a6c4ec3083,67d95ba74a13b56b96a1e155,686d429798a6ab910e8e7a41,46,big_car,big,#ebeb5e,,,,,,,,,,,,,,"[""left"",""left"",""up"",""up""]",small_car,15,10
1,,,,4,0,"[""right"",""right"",""up"",""left""]",,,"[""reward"",""reward"",""reward"",""reward""]",,5842,686d4373f57523a6c4ec3083,67d95ba74a13b56b96a1e155,686d429798a6ab910e8e7a41,47,big_car,big,#FF99CC,,,,,,,,,,,,,,"[""right"",""up"",""right"",""down""]",small_car,15,10
1,,,,4,0,"[""right"",""down"",""down"",""left""]",,,"[""reward"",""reward"",""reward"",""reward""]",,6688,686d4373f57523a6c4ec3083,67d95ba74a13b56b96a1e155,686d429798a6ab910e8e7a41,48,small_sedan,small,#822cd1,,,,,,,,,,,,,,"[""right"",""down"",""down"",""left""]",small_car,15,10
1,,,,4,0,"[""up"",""left"",""left"",""up""]",,,"[""reward"",""reward"",""reward"",""reward""]",,6706,686d4373f57523a6c4ec3083,67d95ba74a13b56b96a1e155,686d429798a6ab910e8e7a41,49,big_car,big,#FF5733,,,,,,,,,,,,,,"[""up"",""left"",""left"",""up""]",small_car,15,10
1,,,,4,0,"[""up"",""right"",""up"",""right""]",,,"[""reward"",""reward"",""reward"",""reward""]",,6955,686d4373f57523a6c4ec3083,67d95ba74a13b56b96a1e155,686d429798a6ab910e8e7a41,50,small_sedan,small,#822cd1,,,,,,,,,,,,,,"[""up"",""right"",""up"",""right""]",small_car,15,10
1,,,,4,0,"[""right"",""up"",""left"",""left""]",,,"[""reward"",""reward"",""reward"",""reward""]",,5333,686d4373f57523a6c4ec3083,67d95ba74a13b56b96a1e155,686d429798a6ab910e8e7a41,51,big_sedan,big,#822cd1,,,,,,,,,,,,,,"[""right"",""up"",""left"",""left""]",small_car,15,10
1,,,,4,0,"[""up"",""up"",""right"",""down""]",,,"[""reward"",""reward"",""reward"",""reward""]",,6811,686d4373f57523a6c4ec3083,67d95ba74a13b56b96a1e155,686d429798a6ab910e8e7a41,52,big_sedan,big,#822cd1,,,,,,,,,,,,,,"[""up"",""up"",""right"",""down""]",small_car,15,10
1,,,,4,0,"[""left"",""down"",""down"",""right""]",,,"[""reward"",""reward"",""reward"",""reward""]",,5696,686d4373f57523a6c4ec3083,67d95ba74a13b56b96a1e155,686d429798a6ab910e8e7a41,53,big_car,big,#FF99CC,,,,,,,,,,,,,,"[""left"",""down"",""down"",""right""]",small_car,15,10
1,,,,4,0,"[""up"",""right"",""right"",""up""]",,,"[""reward"",""reward"",""reward"",""reward""]",,6030,686d4373f57523a6c4ec3083,67d95ba74a13b56b96a1e155,686d429798a6ab910e8e7a41,54,small_sedan,small,#822cd1,,,,,,,,,,,,,,"[""up"",""right"",""right"",""up""]",small_car,15,10
1,,,,4,0,"[""right"",""down"",""left"",""left""]",,,"[""reward"",""reward"",""reward"",""reward""]",,5331,686d4373f57523a6c4ec3083,67d95ba74a13b56b96a1e155,686d429798a6ab910e8e7a41,55,big_car,big,#FF99CC,,,,,,,,,,,,,,"[""right"",""down"",""left"",""left""]",small_car,15,10
1,,,,4,0,"[""left"",""left"",""down"",""right""]",,,"[""reward"",""reward"",""reward"",""reward""]",,8119,686d4373f57523a6c4ec3083,67d95ba74a13b56b96a1e155,686d429798a6ab910e8e7a41,56,small_car,small,#2ca02c,,,,,,,,,,,,,,"[""left"",""left"",""down"",""right""]",small_car,15,10
1,,,,4,0,"[""left"",""down"",""down"",""left""]",,,"[""reward"",""reward"",""reward"",""reward""]",,5646,686d4373f57523a6c4ec3083,67d95ba74a13b56b96a1e155,686d429798a6ab910e8e7a41,57,small_car,small,#FF99CC,,,,,,,,,,,,,,"[""left"",""down"",""down"",""left""]",small_car,15,10
1,,,,4,0,"[""right"",""up"",""up"",""left""]",,,"[""reward"",""reward"",""reward"",""reward""]",,4920,686d4373f57523a6c4ec3083,67d95ba74a13b56b96a1e155,686d429798a6ab910e8e7a41,58,big_car,big,#ebeb5e,,,,,,,,,,,,,,"[""right"",""up"",""up"",""left""]",small_car,15,10
1,,,,4,0,"[""down"",""right"",""down"",""right""]",,,"[""reward"",""reward"",""reward"",""reward""]",,7193,686d4373f57523a6c4ec3083,67d95ba74a13b56b96a1e155,686d429798a6ab910e8e7a41,59,big_car,big,#822cd1,,,,,,,,,,,,,,"[""down"",""right"",""down"",""right""]",small_car,15,10
1,,,,4,0,"[""up"",""up"",""left"",""down""]",,,"[""reward"",""reward"",""reward"",""reward""]",,7404,686d4373f57523a6c4ec3083,67d95ba74a13b56b96a1e155,686d429798a6ab910e8e7a41,60,small_car,small,#2ca02c,,,,,,,,,,,,,,"[""up"",""left"",""up"",""right""]",small_car,15,10
2,,1.75199E+12,[],0,0,,[],,"[""empty"",""empty"",""empty"",""empty""]",1.75199E+12,43833,686d4373f57523a6c4ec3083,67d95ba74a13b56b96a1e155,686d429798a6ab910e8e7a41,1,medium_sedan,medium,#822cd1,wddx,43831,wddx,,0,0,0,0,,,0,0,second-order,"[""up"",""right"",""right"",""down""]",small_car,15,10
2,,1.75199E+12,[],0,0,,[],,"[""empty"",""empty"",""empty"",""empty""]",1.75199E+12,19965,686d4373f57523a6c4ec3083,67d95ba74a13b56b96a1e155,686d429798a6ab910e8e7a41,2,medium_sedan,medium,#822cd1,wwax,19962,wwax,,0,0,0,0,,,0,0,second-order,"[""up"",""left"",""up"",""right""]",small_car,15,10
2,,1.75199E+12,"[{""direction"":""right"",""keyPressed"":""j"",""time"":18861},{""direction"":""right"",""keyPressed"":""j"",""time"":18861}]",0,0,,[],,"[""empty"",""empty"",""obstacle"",""obstacle""]",1.75199E+12,18863,686d4373f57523a6c4ec3083,67d95ba74a13b56b96a1e155,686d429798a6ab910e8e7a41,3,small_sedan,small,#822cd1,mjjm,18861,mjjm,rightright,2,2,0,2,0,2,0,0,first-order,"[""down"",""right"",""right"",""down""]",small_car,15,10
2,,1.75199E+12,"[{""direction"":""up"",""keyPressed"":""w"",""time"":13809},{""direction"":""left"",""keyPressed"":""a"",""time"":13809},{""direction"":""left"",""keyPressed"":""a"",""time"":13809},{""direction"":""down"",""keyPressed"":""x"",""time"":13809}]",0,0,,[],,"[""reward"",""reward"",""reward"",""reward""]",1.75199E+12,13811,686d4373f57523a6c4ec3083,67d95ba74a13b56b96a1e155,686d429798a6ab910e8e7a41,4,small_car,small,#33C1FF,waax,13809,waax,upleftleftdown,4,4,2,2,2,2,0,0,first-order,"[""up"",""left"",""left"",""down""]",small_car,15,10
2,,1.75199E+12,[],0,0,,[],,"[""empty"",""empty"",""empty"",""empty""]",1.75199E+12,14230,686d4373f57523a6c4ec3083,67d95ba74a13b56b96a1e155,686d429798a6ab910e8e7a41,5,medium_sedan,medium,#822cd1,kkuh,14228,kkuh,rightrightupleft,4,4,1,3,,,4,4,second-order,"[""right"",""right"",""up"",""left""]",small_car,15,10
2,,1.75199E+12,[],0,0,,[],,"[""empty"",""empty"",""empty"",""empty""]",1.75199E+12,13893,686d4373f57523a6c4ec3083,67d95ba74a13b56b96a1e155,686d429798a6ab910e8e7a41,6,small_car,small,#dbc7f0,uuhn,13892,uuhn,,0,0,0,0,0,0,0,0,first-order,"[""up"",""up"",""left"",""down""]",small_car,15,10
2,,1.75199E+12,[],0,0,,[],,"[""empty"",""empty"",""empty"",""empty""]",1.75199E+12,14582,686d4373f57523a6c4ec3083,67d95ba74a13b56b96a1e155,686d429798a6ab910e8e7a41,7,medium_car,medium,#2c0eb5,waxa,14580,waxa,upleftdownleft,4,4,2,2,,,-4,-4,second-order,"[""up"",""left"",""down"",""left""]",small_car,15,10
2,,1.75199E+12,[],0,0,,[],,"[""empty"",""empty"",""empty"",""empty""]",1.75199E+12,10413,686d4373f57523a6c4ec3083,67d95ba74a13b56b96a1e155,686d429798a6ab910e8e7a41,8,big_car,big,#e02319,aawd,10411,aawd,,0,0,0,0,0,0,0,0,first-order,"[""left"",""up"",""left"",""down""]",small_car,15,10
2,,1.75199E+12,[],0,0,,[],,"[""empty"",""empty"",""empty"",""empty""]",1.75199E+12,13677,686d4373f57523a6c4ec3083,67d95ba74a13b56b96a1e155,686d429798a6ab910e8e7a41,9,small_car,small,#ad5d24,ugnn,13676,ugnn,,0,0,0,0,0,0,0,0,first-order,"[""up"",""left"",""down"",""down""]",small_car,15,10
2,,1.75199E+12,[],0,0,,[],,"[""empty"",""empty"",""empty"",""empty""]",1.75199E+12,10381,686d4373f57523a6c4ec3083,67d95ba74a13b56b96a1e155,686d429798a6ab910e8e7a41,10,big_sedan,big,#822cd1,wdxd,10378,wdxd,,0,0,0,0,0,0,0,0,first-order,"[""up"",""right"",""down"",""right""]",small_car,15,10
2,,1.75199E+12,[],0,0,,[],,"[""empty"",""empty"",""empty"",""empty""]",1.75199E+12,11979,686d4373f57523a6c4ec3083,67d95ba74a13b56b96a1e155,686d429798a6ab910e8e7a41,11,medium_car,medium,#33C1FF,wawd,11977,wawd,upleftupright,4,1,1,0,,,-4,-1,second-order,"[""up"",""up"",""left"",""down""]",small_car,15,10
2,,1.75199E+12,"[{""direction"":""right"",""keyPressed"":""j"",""time"":12876},{""direction"":""right"",""keyPressed"":""j"",""time"":12876}]",0,0,,[],,"[""empty"",""empty"",""empty"",""obstacle""]",1.75199E+12,12878,686d4373f57523a6c4ec3083,67d95ba74a13b56b96a1e155,686d429798a6ab910e8e7a41,12,small_sedan,small,#822cd1,uujj,12876,uujj,rightright,2,2,0,2,0,2,0,0,first-order,"[""up"",""up"",""right"",""right""]",small_car,15,10
2,,1.75199E+12,[],0,0,,[],,"[""empty"",""empty"",""empty"",""empty""]",1.75199E+12,10231,686d4373f57523a6c4ec3083,67d95ba74a13b56b96a1e155,686d429798a6ab910e8e7a41,13,medium_sedan,medium,#822cd1,xaaw,10229,xaaw,,0,0,0,0,,,0,0,second-order,"[""down"",""left"",""left"",""up""]",small_car,15,10
2,,1.75199E+12,[],0,0,,[],,"[""empty"",""empty"",""empty"",""empty""]",1.75199E+12,10114,686d4373f57523a6c4ec3083,67d95ba74a13b56b96a1e155,686d429798a6ab910e8e7a41,14,big_sedan,big,#822cd1,wdxx,10113,wdxx,,0,0,0,0,0,0,0,0,first-order,"[""up"",""right"",""down"",""down""]",small_car,15,10
2,,1.75199E+12,[],0,0,,[],,"[""empty"",""empty"",""empty"",""empty""]",1.75199E+12,8559,686d4373f57523a6c4ec3083,67d95ba74a13b56b96a1e155,686d429798a6ab910e8e7a41,15,big_car,big,#33FF57,xdwd,8557,xdwd,,0,0,0,0,0,0,0,0,first-order,"[""down"",""right"",""up"",""right""]",small_car,15,10
2,,1.75199E+12,[],0,0,,[],,"[""empty"",""empty"",""empty"",""empty""]",1.75199E+12,9111,686d4373f57523a6c4ec3083,67d95ba74a13b56b96a1e155,686d429798a6ab910e8e7a41,16,medium_car,medium,#33FF57,ujmm,9110,ujmm,,0,0,0,0,,,0,0,second-order,"[""up"",""right"",""down"",""down""]",small_car,15,10
2,,1.75199E+12,[],0,0,,[],,"[""empty"",""empty"",""empty"",""empty""]",1.75199E+12,10982,686d4373f57523a6c4ec3083,67d95ba74a13b56b96a1e155,686d429798a6ab910e8e7a41,17,medium_car,medium,#dbc7f0,hnnj,10980,hnnj,,0,0,0,0,,,0,0,second-order,"[""left"",""down"",""down"",""right""]",small_car,15,10
2,,1.75199E+12,[],0,0,,[],,"[""empty"",""empty"",""empty"",""empty""]",1.75199E+12,7928,686d4373f57523a6c4ec3083,67d95ba74a13b56b96a1e155,686d429798a6ab910e8e7a41,18,big_car,big,#33C1FF,dxxa,7926,dxxa,,0,0,0,0,0,0,0,0,first-order,"[""right"",""down"",""down"",""left""]",small_car,15,10
2,,1.75199E+12,[],0,0,,[],,"[""empty"",""empty"",""empty"",""empty""]",1.75199E+12,7296,686d4373f57523a6c4ec3083,67d95ba74a13b56b96a1e155,686d429798a6ab910e8e7a41,19,medium_car,medium,#e02319,dwwa,7293,dwwa,rightupupleft,4,4,2,2,,,-4,-4,second-order,"[""right"",""up"",""up"",""left""]",small_car,15,10
2,,1.75199E+12,[],0,0,,[],,"[""empty"",""empty"",""empty"",""empty""]",1.75199E+12,8242,686d4373f57523a6c4ec3083,67d95ba74a13b56b96a1e155,686d429798a6ab910e8e7a41,20,medium_sedan,medium,#822cd1,uuhn,8239,uuhn,upupleftdown,4,1,1,0,,,2,1,second-order,"[""up"",""left"",""up"",""right""]",small_car,15,10
2,,1.75199E+12,[],0,0,,[],,"[""empty"",""empty"",""empty"",""empty""]",1.75199E+12,8528,686d4373f57523a6c4ec3083,67d95ba74a13b56b96a1e155,686d429798a6ab910e8e7a41,21,medium_car,medium,#ad5d24,uujn,8527,uujn,,0,0,0,0,,,0,0,second-order,"[""up"",""up"",""right"",""down""]",small_car,15,10
2,,1.75199E+12,[],0,0,,[],,"[""empty"",""empty"",""empty"",""empty""]",1.75199E+12,6378,686d4373f57523a6c4ec3083,67d95ba74a13b56b96a1e155,686d429798a6ab910e8e7a41,22,small_sedan,small,#822cd1,dwws,6377,dwws,,0,0,0,0,0,0,0,0,first-order,"[""right"",""up"",""up"",""left""]",small_car,15,10
2,,1.75199E+12,[],0,0,,[],,"[""empty"",""empty"",""empty"",""empty""]",1.75199E+12,10262,686d4373f57523a6c4ec3083,67d95ba74a13b56b96a1e155,686d429798a6ab910e8e7a41,23,medium_sedan,medium,#822cd1,waxx,10261,waxx,,0,0,0,0,,,0,0,second-order,"[""up"",""left"",""down"",""down""]",small_car,15,10
2,,1.75199E+12,[],0,0,,[],,"[""empty"",""empty"",""empty"",""empty""]",1.75199E+12,7095,686d4373f57523a6c4ec3083,67d95ba74a13b56b96a1e155,686d429798a6ab910e8e7a41,24,big_sedan,big,#822cd1,xxaa,7093,xxaa,,0,0,0,0,0,0,0,0,first-order,"[""down"",""down"",""left"",""left""]",small_car,15,10
0,"{""type"":""car"",""size"":""small"",""upKey"":""w"",""downKey"":""x"",""leftKey"":""a"",""rightKey"":""d"",""keys"":{""up"":""w"",""down"":""x"",""left"":""a"",""right"":""d""},""color"":""red"",""x"":0,""y"":2}",1.75199E+12,"[{""direction"":""down"",""fromPosition"":{""x"":2,""y"":0},""toPosition"":{""x"":2,""y"":1},""time"":7177},{""direction"":""left"",""fromPosition"":{""x"":2,""y"":1},""toPosition"":{""x"":1,""y"":1},""time"":7613},{""direction"":""left"",""fromPosition"":{""x"":1,""y"":1},""toPosition"":{""x"":0,""y"":1},""time"":7748},{""direction"":""down"",""fromPosition"":{""x"":0,""y"":1},""toPosition"":{""x"":0,""y"":2},""time"":8271}]",2,0,"[""down"",""left"",""left"",""down""]","[{""key"":""x"",""direction"":""down"",""rt"":7177,""time"":7177},{""key"":""a"",""direction"":""left"",""rt"":436,""time"":7613},{""key"":""a"",""direction"":""left"",""rt"":135,""time"":7748},{""key"":""x"",""direction"":""down"",""rt"":523,""time"":8271}]",1.75199E+12,"[""reward"",""reward""]",1.75199E+12,8278,686d437bf6e46d7e2175abc4,59a9c0291b7a550001d6392e,686d429798a6ab910e8e7a41,,,,,,,,,,,,,,,,,,[],small_car,8,10
1,,,,4,0,"[""right"",""up"",""left"",""left""]",,,"[""reward"",""reward"",""reward"",""reward""]",,6803,686d437bf6e46d7e2175abc4,59a9c0291b7a550001d6392e,686d429798a6ab910e8e7a41,1,big_sedan,big,#822cd1,,,,,,,,,,,,,,"[""right"",""up"",""left"",""left""]",small_car,8,10
1,,,,4,0,"[""right"",""down"",""left"",""left""]",,,"[""reward"",""reward"",""reward"",""reward""]",,8539,686d437bf6e46d7e2175abc4,59a9c0291b7a550001d6392e,686d429798a6ab910e8e7a41,2,big_sedan,big,#822cd1,,,,,,,,,,,,,,"[""right"",""down"",""left"",""left""]",small_car,8,10
1,,,,4,0,"[""left"",""up"",""left"",""down""]",,,"[""reward"",""reward"",""reward"",""reward""]",,10434,686d437bf6e46d7e2175abc4,59a9c0291b7a550001d6392e,686d429798a6ab910e8e7a41,3,small_car,small,#FF5733,,,,,,,,,,,,,,"[""left"",""left"",""up"",""right""]",small_car,8,10
1,,,,4,0,"[""up"",""left"",""left"",""down""]",,,"[""reward"",""reward"",""reward"",""reward""]",,5291,686d437bf6e46d7e2175abc4,59a9c0291b7a550001d6392e,686d429798a6ab910e8e7a41,4,big_sedan,big,#822cd1,,,,,,,,,,,,,,"[""up"",""left"",""left"",""down""]",small_car,8,10
1,,,,4,0,"[""up"",""up"",""right"",""down""]",,,"[""reward"",""reward"",""reward"",""reward""]",,7636,686d437bf6e46d7e2175abc4,59a9c0291b7a550001d6392e,686d429798a6ab910e8e7a41,5,small_car,small,#ebeb5e,,,,,,,,,,,,,,"[""up"",""up"",""right"",""down""]",small_car,8,10
1,,,,4,0,"[""up"",""up"",""left"",""down""]",,,"[""reward"",""reward"",""reward"",""reward""]",,4966,686d437bf6e46d7e2175abc4,59a9c0291b7a550001d6392e,686d429798a6ab910e8e7a41,6,small_car,small,#2ca02c,,,,,,,,,,,,,,"[""up"",""left"",""up"",""right""]",small_car,8,10
1,,,,4,0,"[""up"",""left"",""left"",""down"",""up"",""up""]",,,"[""reward"",""reward"",""reward"",""reward""]",,8783,686d437bf6e46d7e2175abc4,59a9c0291b7a550001d6392e,686d429798a6ab910e8e7a41,7,big_car,big,#FF5733,,,,,,,,,,,,,,"[""up"",""left"",""left"",""up""]",small_car,8,10
1,,,,4,0,"[""down"",""down"",""left"",""up""]",,,"[""reward"",""reward"",""reward"",""reward""]",,7131,686d437bf6e46d7e2175abc4,59a9c0291b7a550001d6392e,686d429798a6ab910e8e7a41,8,big_sedan,big,#822cd1,,,,,,,,,,,,,,"[""down"",""left"",""down"",""right""]",small_car,8,10
1,,,,4,0,"[""right"",""up"",""left"",""left""]",,,"[""reward"",""reward"",""reward"",""reward""]",,6433,686d437bf6e46d7e2175abc4,59a9c0291b7a550001d6392e,686d429798a6ab910e8e7a41,9,big_sedan,big,#822cd1,,,,,,,,,,,,,,"[""right"",""up"",""left"",""left""]",small_car,8,10
1,,,,4,0,"[""right"",""up"",""up"",""left""]",,,"[""reward"",""reward"",""reward"",""reward""]",,6720,686d437bf6e46d7e2175abc4,59a9c0291b7a550001d6392e,686d429798a6ab910e8e7a41,10,big_car,big,#2ca02c,,,,,,,,,,,,,,"[""right"",""up"",""up"",""left""]",small_car,8,10
1,,,,4,0,"[""down"",""left"",""left"",""up""]",,,"[""reward"",""reward"",""reward"",""reward""]",,5471,686d437bf6e46d7e2175abc4,59a9c0291b7a550001d6392e,686d429798a6ab910e8e7a41,11,small_car,small,#FF99CC,,,,,,,,,,,,,,"[""down"",""left"",""left"",""up""]",small_car,8,10
1,,,,4,0,"[""up"",""left"",""up"",""left""]",,,"[""reward"",""reward"",""reward"",""reward""]",,6596,686d437bf6e46d7e2175abc4,59a9c0291b7a550001d6392e,686d429798a6ab910e8e7a41,12,big_sedan,big,#822cd1,,,,,,,,,,,,,,"[""up"",""left"",""up"",""left""]",small_car,8,10
1,,,,4,0,"[""up"",""up"",""right"",""down""]",,,"[""reward"",""reward"",""reward"",""reward""]",,5370,686d437bf6e46d7e2175abc4,59a9c0291b7a550001d6392e,686d429798a6ab910e8e7a41,13,small_sedan,small,#822cd1,,,,,,,,,,,,,,"[""up"",""right"",""up"",""left""]",small_car,8,10
1,,,,4,0,"[""left"",""left"",""up"",""up""]",,,"[""reward"",""reward"",""reward"",""reward""]",,3554,686d437bf6e46d7e2175abc4,59a9c0291b7a550001d6392e,686d429798a6ab910e8e7a41,14,small_car,small,#2ca02c,,,,,,,,,,,,,,"[""left"",""left"",""up"",""up""]",small_car,8,10
1,,,,4,0,"[""right"",""right"",""down"",""left"",""left""]",,,"[""reward"",""reward"",""reward"",""reward""]",,7015,686d437bf6e46d7e2175abc4,59a9c0291b7a550001d6392e,686d429798a6ab910e8e7a41,15,big_sedan,big,#822cd1,,,,,,,,,,,,,,"[""down"",""right"",""up"",""right""]",small_car,8,10
1,,,,4,0,"[""down"",""left"",""left"",""up""]",,,"[""reward"",""reward"",""reward"",""reward""]",,6003,686d437bf6e46d7e2175abc4,59a9c0291b7a550001d6392e,686d429798a6ab910e8e7a41,16,small_car,small,#822cd1,,,,,,,,,,,,,,"[""down"",""left"",""left"",""up""]",small_car,8,10
1,,,,4,0,"[""right"",""down"",""down"",""right""]",,,"[""reward"",""reward"",""reward"",""reward""]",,5966,686d437bf6e46d7e2175abc4,59a9c0291b7a550001d6392e,686d429798a6ab910e8e7a41,17,small_car,small,#FF5733,,,,,,,,,,,,,,"[""right"",""down"",""down"",""right""]",small_car,8,10
1,,,,4,0,"[""left"",""down"",""down"",""right""]",,,"[""reward"",""reward"",""reward"",""reward""]",,5353,686d437bf6e46d7e2175abc4,59a9c0291b7a550001d6392e,686d429798a6ab910e8e7a41,18,big_car,big,#ebeb5e,,,,,,,,,,,,,,"[""left"",""down"",""down"",""right""]",small_car,8,10
1,,,,4,0,"[""right"",""down"",""left"",""left""]",,,"[""reward"",""reward"",""reward"",""reward""]",,6727,686d437bf6e46d7e2175abc4,59a9c0291b7a550001d6392e,686d429798a6ab910e8e7a41,19,big_car,big,#ebeb5e,,,,,,,,,,,,,,"[""right"",""down"",""left"",""left""]",small_car,8,10
1,,,,4,0,"[""down"",""right"",""right"",""up""]",,,"[""reward"",""reward"",""reward"",""reward""]",,8661,686d437bf6e46d7e2175abc4,59a9c0291b7a550001d6392e,686d429798a6ab910e8e7a41,20,big_car,big,#822cd1,,,,,,,,,,,,,,"[""down"",""right"",""right"",""up""]",small_car,8,10
1,,,,4,0,"[""up"",""up"",""right"",""right""]",,,"[""reward"",""reward"",""reward"",""reward""]",,4674,686d437bf6e46d7e2175abc4,59a9c0291b7a550001d6392e,686d429798a6ab910e8e7a41,21,big_car,big,#FF5733,,,,,,,,,,,,,,"[""up"",""up"",""right"",""right""]",small_car,8,10
1,,,,4,0,"[""down"",""down"",""right"",""up""]",,,"[""reward"",""reward"",""reward"",""reward""]",,6873,686d437bf6e46d7e2175abc4,59a9c0291b7a550001d6392e,686d429798a6ab910e8e7a41,22,small_car,small,#2ca02c,,,,,,,,,,,,,,"[""down"",""right"",""down"",""left""]",small_car,8,10
1,,,,4,0,"[""down"",""down"",""left"",""up""]",,,"[""reward"",""reward"",""reward"",""reward""]",,7863,686d437bf6e46d7e2175abc4,59a9c0291b7a550001d6392e,686d429798a6ab910e8e7a41,23,small_car,small,#FF99CC,,,,,,,,,,,,,,"[""down"",""down"",""left"",""up""]",small_car,8,10
1,,,,4,0,"[""right"",""down"",""down"",""left""]",,,"[""reward"",""reward"",""reward"",""reward""]",,7001,686d437bf6e46d7e2175abc4,59a9c0291b7a550001d6392e,686d429798a6ab910e8e7a41,24,small_sedan,small,#822cd1,,,,,,,,,,,,,,"[""right"",""down"",""down"",""left""]",small_car,8,10
1,,,,4,0,"[""left"",""left"",""down"",""right""]",,,"[""reward"",""reward"",""reward"",""reward""]",,4966,686d437bf6e46d7e2175abc4,59a9c0291b7a550001d6392e,686d429798a6ab910e8e7a41,25,small_sedan,small,#822cd1,,,,,,,,,,,,,,"[""left"",""down"",""left"",""up""]",small_car,8,10
1,,,,4,0,"[""down"",""left"",""up"",""left""]",,,"[""reward"",""reward"",""reward"",""reward""]",,6716,686d437bf6e46d7e2175abc4,59a9c0291b7a550001d6392e,686d429798a6ab910e8e7a41,26,small_sedan,small,#822cd1,,,,,,,,,,,,,,"[""down"",""left"",""up"",""left""]",small_car,8,10
1,,,,4,0,"[""right"",""down"",""down"",""left""]",,,"[""reward"",""reward"",""reward"",""reward""]",,7661,686d437bf6e46d7e2175abc4,59a9c0291b7a550001d6392e,686d429798a6ab910e8e7a41,27,small_sedan,small,#822cd1,,,,,,,,,,,,,,"[""right"",""down"",""down"",""left""]",small_car,8,10
1,,,,4,0,"[""left"",""left"",""down"",""down""]",,,"[""reward"",""reward"",""reward"",""reward""]",,6926,686d437bf6e46d7e2175abc4,59a9c0291b7a550001d6392e,686d429798a6ab910e8e7a41,28,big_car,big,#FF99CC,,,,,,,,,,,,,,"[""left"",""left"",""down"",""down""]",small_car,8,10
1,,,,4,0,"[""right"",""right"",""down"",""left""]",,,"[""reward"",""reward"",""reward"",""reward""]",,5181,686d437bf6e46d7e2175abc4,59a9c0291b7a550001d6392e,686d429798a6ab910e8e7a41,29,big_sedan,big,#822cd1,,,,,,,,,,,,,,"[""right"",""down"",""right"",""up""]",small_car,8,10
1,,,,4,0,"[""down"",""down"",""right"",""up""]",,,"[""reward"",""reward"",""reward"",""reward""]",,7192,686d437bf6e46d7e2175abc4,59a9c0291b7a550001d6392e,686d429798a6ab910e8e7a41,30,big_car,big,#ebeb5e,,,,,,,,,,,,,,"[""down"",""right"",""down"",""left""]",small_car,8,10
1,,,,4,0,"[""right"",""down"",""down"",""left""]",,,"[""reward"",""reward"",""reward"",""reward""]",,4704,686d437bf6e46d7e2175abc4,59a9c0291b7a550001d6392e,686d429798a6ab910e8e7a41,31,small_sedan,small,#822cd1,,,,,,,,,,,,,,"[""right"",""down"",""down"",""left""]",small_car,8,10
1,,,,4,0,"[""down"",""down"",""right"",""right""]",,,"[""reward"",""reward"",""reward"",""reward""]",,3308,686d437bf6e46d7e2175abc4,59a9c0291b7a550001d6392e,686d429798a6ab910e8e7a41,32,small_sedan,small,#822cd1,,,,,,,,,,,,,,"[""down"",""down"",""right"",""right""]",small_car,8,10
1,,,,4,0,"[""down"",""down"",""right"",""up""]",,,"[""reward"",""reward"",""reward"",""reward""]",,6725,686d437bf6e46d7e2175abc4,59a9c0291b7a550001d6392e,686d429798a6ab910e8e7a41,33,big_car,big,#822cd1,,,,,,,,,,,,,,"[""down"",""right"",""down"",""left""]",small_car,8,10
1,,,,4,0,"[""right"",""right"",""up"",""left"",""left""]",,,"[""reward"",""reward"",""reward"",""reward""]",,8369,686d437bf6e46d7e2175abc4,59a9c0291b7a550001d6392e,686d429798a6ab910e8e7a41,34,small_sedan,small,#822cd1,,,,,,,,,,,,,,"[""right"",""up"",""left"",""left""]",small_car,8,10
1,,,,4,0,"[""left"",""left"",""down"",""right""]",,,"[""reward"",""reward"",""reward"",""reward""]",,4949,686d437bf6e46d7e2175abc4,59a9c0291b7a550001d6392e,686d429798a6ab910e8e7a41,35,small_sedan,small,#822cd1,,,,,,,,,,,,,,"[""left"",""down"",""left"",""up""]",small_car,8,10
1,,,,4,0,"[""up"",""right"",""down"",""down""]",,,"[""reward"",""reward"",""reward"",""reward""]",,5215,686d437bf6e46d7e2175abc4,59a9c0291b7a550001d6392e,686d429798a6ab910e8e7a41,36,big_sedan,big,#822cd1,,,,,,,,,,,,,,"[""up"",""right"",""down"",""down""]",small_car,8,10
1,,,,4,0,"[""right"",""right"",""down"",""left""]",,,"[""reward"",""reward"",""reward"",""reward""]",,5314,686d437bf6e46d7e2175abc4,59a9c0291b7a550001d6392e,686d429798a6ab910e8e7a41,37,big_sedan,big,#822cd1,,,,,,,,,,,,,,"[""right"",""right"",""down"",""left""]",small_car,8,10
1,,,,4,0,"[""down"",""right"",""down"",""right""]",,,"[""reward"",""reward"",""reward"",""reward""]",,8926,686d437bf6e46d7e2175abc4,59a9c0291b7a550001d6392e,686d429798a6ab910e8e7a41,38,big_car,big,#FF5733,,,,,,,,,,,,,,"[""down"",""right"",""down"",""right""]",small_car,8,10
1,,,,4,0,"[""right"",""right"",""up"",""left""]",,,"[""reward"",""reward"",""reward"",""reward""]",,8251,686d437bf6e46d7e2175abc4,59a9c0291b7a550001d6392e,686d429798a6ab910e8e7a41,39,big_car,big,#2ca02c,,,,,,,,,,,,,,"[""right"",""up"",""right"",""down""]",small_car,8,10
1,,,,4,0,"[""left"",""up"",""up"",""right""]",,,"[""reward"",""reward"",""reward"",""reward""]",,7613,686d437bf6e46d7e2175abc4,59a9c0291b7a550001d6392e,686d429798a6ab910e8e7a41,40,small_car,small,#822cd1,,,,,,,,,,,,,,"[""left"",""up"",""up"",""right""]",small_car,8,10
1,,,,4,0,"[""right"",""up"",""left"",""left""]",,,"[""reward"",""reward"",""reward"",""reward""]",,5748,686d437bf6e46d7e2175abc4,59a9c0291b7a550001d6392e,686d429798a6ab910e8e7a41,41,big_sedan,big,#822cd1,,,,,,,,,,,,,,"[""right"",""up"",""left"",""left""]",small_car,8,10
1,,,,4,0,"[""left"",""left"",""up"",""up""]",,,"[""reward"",""reward"",""reward"",""reward""]",,4613,686d437bf6e46d7e2175abc4,59a9c0291b7a550001d6392e,686d429798a6ab910e8e7a41,42,big_sedan,big,#822cd1,,,,,,,,,,,,,,"[""left"",""left"",""up"",""up""]",small_car,8,10
1,,,,4,0,"[""left"",""left"",""down"",""right""]",,,"[""reward"",""reward"",""reward"",""reward""]",,5031,686d437bf6e46d7e2175abc4,59a9c0291b7a550001d6392e,686d429798a6ab910e8e7a41,43,small_car,small,#822cd1,,,,,,,,,,,,,,"[""left"",""left"",""down"",""right""]",small_car,8,10
1,,,,4,0,"[""down"",""down"",""right"",""up""]",,,"[""reward"",""reward"",""reward"",""reward""]",,4752,686d437bf6e46d7e2175abc4,59a9c0291b7a550001d6392e,686d429798a6ab910e8e7a41,44,small_sedan,small,#822cd1,,,,,,,,,,,,,,"[""down"",""down"",""right"",""up""]",small_car,8,10
1,,,,4,0,"[""down"",""left"",""up"",""left""]",,,"[""reward"",""reward"",""reward"",""reward""]",,9034,686d437bf6e46d7e2175abc4,59a9c0291b7a550001d6392e,686d429798a6ab910e8e7a41,45,small_car,small,#ebeb5e,,,,,,,,,,,,,,"[""down"",""left"",""up"",""left""]",small_car,8,10
1,,,,4,0,"[""left"",""down"",""down"",""right""]",,,"[""reward"",""reward"",""reward"",""reward""]",,6797,686d437bf6e46d7e2175abc4,59a9c0291b7a550001d6392e,686d429798a6ab910e8e7a41,46,big_car,big,#FF99CC,,,,,,,,,,,,,,"[""left"",""down"",""down"",""right""]",small_car,8,10
1,,,,4,0,"[""up"",""right"",""right"",""up""]",,,"[""reward"",""reward"",""reward"",""reward""]",,15681,686d437bf6e46d7e2175abc4,59a9c0291b7a550001d6392e,686d429798a6ab910e8e7a41,47,small_sedan,small,#822cd1,,,,,,,,,,,,,,"[""up"",""right"",""right"",""up""]",small_car,8,10
1,,,,4,0,"[""left"",""down"",""down"",""left""]",,,"[""reward"",""reward"",""reward"",""reward""]",,5177,686d437bf6e46d7e2175abc4,59a9c0291b7a550001d6392e,686d429798a6ab910e8e7a41,48,small_car,small,#FF5733,,,,,,,,,,,,,,"[""left"",""down"",""down"",""left""]",small_car,8,10
1,,,,4,0,"[""right"",""up"",""up"",""left""]",,,"[""reward"",""reward"",""reward"",""reward""]",,5355,686d437bf6e46d7e2175abc4,59a9c0291b7a550001d6392e,686d429798a6ab910e8e7a41,49,big_sedan,big,#822cd1,,,,,,,,,,,,,,"[""right"",""up"",""up"",""left""]",small_car,8,10
1,,,,4,0,"[""down"",""left"",""left"",""up""]",,,"[""reward"",""reward"",""reward"",""reward""]",,5609,686d437bf6e46d7e2175abc4,59a9c0291b7a550001d6392e,686d429798a6ab910e8e7a41,50,small_car,small,#ebeb5e,,,,,,,,,,,,,,"[""down"",""left"",""left"",""up""]",small_car,8,10
1,,,,4,0,"[""up"",""right"",""up"",""right""]",,,"[""reward"",""reward"",""reward"",""reward""]",,7105,686d437bf6e46d7e2175abc4,59a9c0291b7a550001d6392e,686d429798a6ab910e8e7a41,51,small_sedan,small,#822cd1,,,,,,,,,,,,,,"[""up"",""right"",""up"",""right""]",small_car,8,10
1,,,,4,0,"[""up"",""left"",""down"",""down""]",,,"[""reward"",""reward"",""reward"",""reward""]",,5724,686d437bf6e46d7e2175abc4,59a9c0291b7a550001d6392e,686d429798a6ab910e8e7a41,52,big_car,big,#822cd1,,,,,,,,,,,,,,"[""up"",""left"",""down"",""down""]",small_car,8,10
1,,,,4,0,"[""right"",""down"",""left"",""down""]",,,"[""reward"",""reward"",""reward"",""reward""]",,6151,686d437bf6e46d7e2175abc4,59a9c0291b7a550001d6392e,686d429798a6ab910e8e7a41,53,small_sedan,small,#822cd1,,,,,,,,,,,,,,"[""right"",""down"",""left"",""down""]",small_car,8,10
1,,,,4,0,"[""up"",""left"",""down"",""down""]",,,"[""reward"",""reward"",""reward"",""reward""]",,4800,686d437bf6e46d7e2175abc4,59a9c0291b7a550001d6392e,686d429798a6ab910e8e7a41,54,big_car,big,#FF99CC,,,,,,,,,,,,,,"[""up"",""left"",""down"",""down""]",small_car,8,10
1,,,,4,0,"[""left"",""left"",""up"",""up""]",,,"[""reward"",""reward"",""reward"",""reward""]",,3725,686d437bf6e46d7e2175abc4,59a9c0291b7a550001d6392e,686d429798a6ab910e8e7a41,55,big_car,big,#2ca02c,,,,,,,,,,,,,,"[""left"",""left"",""up"",""up""]",small_car,8,10
1,,,,4,0,"[""down"",""down"",""left"",""left""]",,,"[""reward"",""reward"",""reward"",""reward""]",,4043,686d437bf6e46d7e2175abc4,59a9c0291b7a550001d6392e,686d429798a6ab910e8e7a41,56,small_car,small,#FF99CC,,,,,,,,,,,,,,"[""down"",""down"",""left"",""left""]",small_car,8,10
1,,,,4,0,"[""up"",""up"",""right"",""down""]",,,"[""reward"",""reward"",""reward"",""reward""]",,5463,686d437bf6e46d7e2175abc4,59a9c0291b7a550001d6392e,686d429798a6ab910e8e7a41,57,big_sedan,big,#822cd1,,,,,,,,,,,,,,"[""up"",""up"",""right"",""down""]",small_car,8,10
1,,,,4,0,"[""left"",""down"",""down"",""right""]",,,"[""reward"",""reward"",""reward"",""reward""]",,4088,686d437bf6e46d7e2175abc4,59a9c0291b7a550001d6392e,686d429798a6ab910e8e7a41,58,small_sedan,small,#822cd1,,,,,,,,,,,,,,"[""left"",""down"",""down"",""right""]",small_car,8,10
1,,,,4,0,"[""right"",""down"",""left"",""left""]",,,"[""reward"",""reward"",""reward"",""reward""]",,5830,686d437bf6e46d7e2175abc4,59a9c0291b7a550001d6392e,686d429798a6ab910e8e7a41,59,small_sedan,small,#822cd1,,,,,,,,,,,,,,"[""right"",""down"",""left"",""left""]",small_car,8,10
1,,,,4,0,"[""left"",""down"",""right"",""right""]",,,"[""reward"",""reward"",""reward"",""reward""]",,7412,686d437bf6e46d7e2175abc4,59a9c0291b7a550001d6392e,686d429798a6ab910e8e7a41,60,big_sedan,big,#822cd1,,,,,,,,,,,,,,"[""left"",""down"",""right"",""right""]",small_car,8,10
2,,1.75199E+12,[],0,0,,[],,[],1.75199E+12,27214,686d437bf6e46d7e2175abc4,59a9c0291b7a550001d6392e,686d429798a6ab910e8e7a41,1,small_sedan,small,#822cd1,,,"arrowright,arrowup,arrowright",leftleft,2,0,0,0,0,0,0,0,first-order,"[""right"",""up"",""up"",""left""]",small_car,8,10
2,,1.75199E+12,[],0,0,,[],,"[""empty"",""empty"",""empty"",""empty""]",1.75199E+12,9350,686d437bf6e46d7e2175abc4,59a9c0291b7a550001d6392e,686d429798a6ab910e8e7a41,2,medium_car,medium,#33C1FF,aauu,9348,aauu,leftleft,2,1,0,1,,,-2,-1,second-order,"[""up"",""left"",""down"",""left""]",small_car,8,10
2,,1.75199E+12,[],0,0,,[],,"[""empty"",""empty"",""empty"",""empty""]",1.75199E+12,13207,686d437bf6e46d7e2175abc4,59a9c0291b7a550001d6392e,686d429798a6ab910e8e7a41,3,medium_car,medium,#33FF57,wwjx,13204,wwjx,upupdown,3,3,3,0,,,-3,-3,second-order,"[""up"",""up"",""right"",""down""]",small_car,8,10
2,,1.75199E+12,[],0,0,,[],,"[""empty"",""empty"",""empty"",""empty""]",1.75199E+12,8741,686d437bf6e46d7e2175abc4,59a9c0291b7a550001d6392e,686d429798a6ab910e8e7a41,4,medium_sedan,medium,#822cd1,waxx,8740,waxx,,0,0,0,0,,,0,0,second-order,"[""up"",""left"",""down"",""down""]",small_car,8,10
2,,1.75199E+12,[],0,0,,[],,"[""empty"",""empty"",""empty"",""empty""]",1.75199E+12,11106,686d437bf6e46d7e2175abc4,59a9c0291b7a550001d6392e,686d429798a6ab910e8e7a41,5,small_sedan,small,#822cd1,xkkx,11104,xkkx,,0,0,0,0,0,0,0,0,first-order,"[""down"",""right"",""right"",""down""]",small_car,8,10
2,,1.75199E+12,[],0,0,,[],,"[""empty"",""empty"",""empty"",""empty""]",1.75199E+12,10779,686d437bf6e46d7e2175abc4,59a9c0291b7a550001d6392e,686d429798a6ab910e8e7a41,6,medium_car,medium,#dbc7f0,kwwa,10777,kwwa,upupleft,3,3,2,1,,,-3,-3,second-order,"[""right"",""up"",""up"",""left""]",small_car,8,10
2,,1.75199E+12,"[{""direction"":""right"",""keyPressed"":""j"",""time"":9548},{""direction"":""right"",""keyPressed"":""j"",""time"":9548}]",0,0,,[],,"[""empty"",""empty"",""empty"",""obstacle""]",1.75199E+12,9549,686d437bf6e46d7e2175abc4,59a9c0291b7a550001d6392e,686d429798a6ab910e8e7a41,7,small_sedan,small,#822cd1,wwjj,9548,wwjj,rightright,2,2,0,2,0,2,0,0,first-order,"[""up"",""up"",""right"",""right""]",small_car,8,10
2,,1.75199E+12,[],0,0,,[],,"[""empty"",""empty"",""empty"",""empty""]",1.75199E+12,7170,686d437bf6e46d7e2175abc4,59a9c0291b7a550001d6392e,686d429798a6ab910e8e7a41,8,medium_car,medium,#e02319,axxj,7168,axxj,leftdowndown,3,3,2,1,,,-3,-3,second-order,"[""left"",""down"",""down"",""right""]",small_car,8,10
2,,1.75199E+12,[],0,0,,[],,"[""empty"",""empty"",""empty"",""empty""]",1.75199E+12,6543,686d437bf6e46d7e2175abc4,59a9c0291b7a550001d6392e,686d429798a6ab910e8e7a41,9,medium_sedan,medium,#822cd1,jjwa,6541,jjwa,rightright,2,2,0,2,,,-2,-2,second-order,"[""right"",""right"",""up"",""left""]",small_car,8,10
2,,1.75199E+12,"[{""direction"":""up"",""keyPressed"":""w"",""time"":7031},{""direction"":""up"",""keyPressed"":""w"",""time"":7031},{""direction"":""left"",""keyPressed"":""a"",""time"":7031},{""direction"":""down"",""keyPressed"":""x"",""time"":7031}]",0,0,,[],,"[""reward"",""reward"",""reward"",""reward""]",1.75199E+12,7033,686d437bf6e46d7e2175abc4,59a9c0291b7a550001d6392e,686d429798a6ab910e8e7a41,10,small_car,small,#33FF57,wwax,7031,wwax,upupleftdown,4,4,3,1,3,1,0,0,first-order,"[""up"",""up"",""left"",""down""]",small_car,8,10
2,,1.75199E+12,"[{""direction"":""up"",""keyPressed"":""w"",""time"":4710},{""direction"":""left"",""keyPressed"":""a"",""time"":4710},{""direction"":""down"",""keyPressed"":""x"",""time"":4710},{""direction"":""down"",""keyPressed"":""x"",""time"":4710}]",0,0,,[],,"[""reward"",""reward"",""reward"",""reward""]",1.75199E+12,4712,686d437bf6e46d7e2175abc4,59a9c0291b7a550001d6392e,686d429798a6ab910e8e7a41,11,small_car,small,#e02319,waxx,4710,waxx,upleftdowndown,4,4,3,1,3,1,0,0,first-order,"[""up"",""left"",""down"",""down""]",small_car,8,10
2,,1.75199E+12,[],0,0,,[],,"[""empty"",""empty"",""empty"",""empty""]",1.75199E+12,4499,686d437bf6e46d7e2175abc4,59a9c0291b7a550001d6392e,686d429798a6ab910e8e7a41,12,big_sedan,big,#822cd1,xxaa,4497,xxaa,,0,0,0,0,0,0,0,0,first-order,"[""down"",""down"",""left"",""left""]",small_car,8,10
2,,1.75199E+12,[],0,0,,[],,"[""empty"",""empty"",""empty"",""empty""]",1.75199E+12,13057,686d437bf6e46d7e2175abc4,59a9c0291b7a550001d6392e,686d429798a6ab910e8e7a41,13,big_car,big,#dbc7f0,xjwj,13055,xjwj,,0,0,0,0,0,0,0,0,first-order,"[""down"",""right"",""up"",""right""]",small_car,8,10
2,,1.75199E+12,[],0,0,,[],,"[""empty"",""empty"",""empty"",""empty""]",1.75199E+12,5415,686d437bf6e46d7e2175abc4,59a9c0291b7a550001d6392e,686d429798a6ab910e8e7a41,14,medium_sedan,medium,#822cd1,wjjx,5413,wjjx,rightright,2,2,0,2,,,-2,-2,second-order,"[""up"",""right"",""right"",""down""]",small_car,8,10
2,,1.75199E+12,"[{""direction"":""up"",""keyPressed"":""w"",""time"":5984},{""direction"":""left"",""keyPressed"":""a"",""time"":5984},{""direction"":""left"",""keyPressed"":""a"",""time"":5984},{""direction"":""down"",""keyPressed"":""x"",""time"":5984}]",0,0,,[],,"[""reward"",""reward"",""reward"",""reward""]",1.75199E+12,5986,686d437bf6e46d7e2175abc4,59a9c0291b7a550001d6392e,686d429798a6ab910e8e7a41,15,small_car,small,#dbc7f0,waax,5984,waax,upleftleftdown,4,4,2,2,2,2,0,0,first-order,"[""up"",""left"",""left"",""down""]",small_car,8,10
2,,1.75199E+12,[],0,0,,[],,"[""empty"",""empty"",""empty"",""empty""]",1.75199E+12,9336,686d437bf6e46d7e2175abc4,59a9c0291b7a550001d6392e,686d429798a6ab910e8e7a41,16,big_sedan,big,#822cd1,wjxj,9335,wjxj,,0,0,0,0,0,0,0,0,first-order,"[""up"",""right"",""down"",""right""]",small_car,8,10
2,,1.75199E+12,[],0,0,,[],,"[""empty"",""empty"",""empty"",""empty""]",1.75199E+12,7726,686d437bf6e46d7e2175abc4,59a9c0291b7a550001d6392e,686d429798a6ab910e8e7a41,17,medium_sedan,medium,#822cd1,xaaw,7724,xaaw,,0,0,0,0,,,0,0,second-order,"[""down"",""left"",""left"",""up""]",small_car,8,10
2,,1.75199E+12,[],0,0,,[],,"[""empty"",""empty"",""empty"",""empty""]",1.75199E+12,7640,686d437bf6e46d7e2175abc4,59a9c0291b7a550001d6392e,686d429798a6ab910e8e7a41,18,big_sedan,big,#822cd1,wjxx,7638,wjxx,,0,0,0,0,0,0,0,0,first-order,"[""up"",""right"",""down"",""down""]",small_car,8,10
2,,1.75199E+12,[],0,0,,[],,"[""empty"",""empty"",""empty"",""empty""]",1.75199E+12,6828,686d437bf6e46d7e2175abc4,59a9c0291b7a550001d6392e,686d429798a6ab910e8e7a41,19,big_car,big,#33FF57,jxxa,6826,jxxa,,0,0,0,0,0,0,0,0,first-order,"[""right"",""down"",""down"",""left""]",small_car,8,10
2,,1.75199E+12,[],0,0,,[],,"[""empty"",""empty"",""empty"",""empty""]",1.75199E+12,7242,686d437bf6e46d7e2175abc4,59a9c0291b7a550001d6392e,686d429798a6ab910e8e7a41,20,medium_sedan,medium,#822cd1,wwax,7229,wwax,,0,0,0,0,,,0,0,second-order,"[""up"",""left"",""up"",""right""]",small_car,8,10
2,,1.75199E+12,[],0,0,,[],,"[""empty"",""empty"",""empty"",""empty""]",1.75199E+12,5907,686d437bf6e46d7e2175abc4,59a9c0291b7a550001d6392e,686d429798a6ab910e8e7a41,21,medium_sedan,medium,#822cd1,wwax,5905,wwax,,0,0,0,0,,,0,0,second-order,"[""up"",""left"",""up"",""right""]",small_car,8,10
2,,1.75199E+12,[],0,0,,[],,"[""empty"",""empty"",""empty"",""empty""]",1.75199E+12,6544,686d437bf6e46d7e2175abc4,59a9c0291b7a550001d6392e,686d429798a6ab910e8e7a41,22,big_car,big,#ad5d24,aawj,6543,aawj,,0,0,0,0,0,0,0,0,first-order,"[""left"",""up"",""left"",""down""]",small_car,8,10
2,,1.75199E+12,[],0,0,,[],,"[""empty"",""empty"",""empty"",""empty""]",1.75199E+12,4824,686d437bf6e46d7e2175abc4,59a9c0291b7a550001d6392e,686d429798a6ab910e8e7a41,23,medium_car,medium,#ad5d24,wjxx,4822,wjxx,updowndown,3,3,3,0,,,-3,-3,second-order,"[""up"",""right"",""down"",""down""]",small_car,8,10
2,,1.75199E+12,[],0,0,,[],,"[""empty"",""empty"",""empty"",""empty""]",1.75199E+12,5772,686d437bf6e46d7e2175abc4,59a9c0291b7a550001d6392e,686d429798a6ab910e8e7a41,24,medium_car,medium,#2c0eb5,wwax,5770,wwax,upupleftdown,4,4,3,1,,,-4,-4,second-order,"[""up"",""up"",""left"",""down""]",small_car,8,10
0,"{""type"":""car"",""size"":""small"",""upKey"":""w"",""downKey"":""x"",""leftKey"":""a"",""rightKey"":""d"",""keys"":{""up"":""w"",""down"":""x"",""left"":""a"",""right"":""d""},""color"":""red"",""x"":0,""y"":2}",1.75199E+12,"[{""direction"":""left"",""fromPosition"":{""x"":2,""y"":0},""toPosition"":{""x"":1,""y"":0},""time"":21456},{""direction"":""down"",""fromPosition"":{""x"":1,""y"":0},""toPosition"":{""x"":1,""y"":1},""time"":24684},{""direction"":""down"",""fromPosition"":{""x"":1,""y"":1},""toPosition"":{""x"":1,""y"":2},""time"":27266},{""direction"":""left"",""fromPosition"":{""x"":1,""y"":2},""toPosition"":{""x"":0,""y"":2},""time"":27631}]",2,0,"[""left"",""down"",""down"",""left""]","[{""key"":""a"",""direction"":""left"",""rt"":21456,""time"":21456},{""key"":""x"",""direction"":""down"",""rt"":3228,""time"":24684},{""key"":""x"",""direction"":""down"",""rt"":2582,""time"":27266},{""key"":""a"",""direction"":""left"",""rt"":365,""time"":27631}]",1.75199E+12,"[""reward"",""reward""]",1.75199E+12,27650,686d439432af8f925e913308,677ea99632ede91523475586,686d429798a6ab910e8e7a41,,,,,,,,,,,,,,,,,,[],big_car,15,12
1,,,,4,0,"[""down"",""left"",""left"",""up""]",,,"[""reward"",""reward"",""reward"",""reward""]",,7068,686d439432af8f925e913308,677ea99632ede91523475586,686d429798a6ab910e8e7a41,1,small_car,small,#FF5733,,,,,,,,,,,,,,"[""down"",""left"",""left"",""up""]",big_car,15,12
1,,,,4,0,"[""left"",""left"",""up"",""right""]",,,"[""reward"",""reward"",""reward"",""reward""]",,19739,686d439432af8f925e913308,677ea99632ede91523475586,686d429798a6ab910e8e7a41,2,big_sedan,big,#822cd1,,,,,,,,,,,,,,"[""left"",""left"",""up"",""right""]",big_car,15,12
1,,,,4,0,"[""left"",""down"",""down"",""left""]",,,"[""reward"",""reward"",""reward"",""reward""]",,6256,686d439432af8f925e913308,677ea99632ede91523475586,686d429798a6ab910e8e7a41,3,small_car,small,#ebeb5e,,,,,,,,,,,,,,"[""left"",""down"",""down"",""left""]",big_car,15,12
1,,,,4,0,"[""up"",""left"",""down"",""down""]",,,"[""reward"",""reward"",""reward"",""reward""]",,9367,686d439432af8f925e913308,677ea99632ede91523475586,686d429798a6ab910e8e7a41,4,big_sedan,big,#822cd1,,,,,,,,,,,,,,"[""up"",""left"",""down"",""down""]",big_car,15,12
1,,,,4,0,"[""right"",""down"",""down"",""right""]",,,"[""reward"",""reward"",""reward"",""reward""]",,5306,686d439432af8f925e913308,677ea99632ede91523475586,686d429798a6ab910e8e7a41,5,small_car,small,#FF99CC,,,,,,,,,,,,,,"[""right"",""down"",""down"",""right""]",big_car,15,12
1,,,,4,0,"[""down"",""down"",""left"",""up""]",,,"[""reward"",""reward"",""reward"",""reward""]",,5827,686d439432af8f925e913308,677ea99632ede91523475586,686d429798a6ab910e8e7a41,6,big_sedan,big,#822cd1,,,,,,,,,,,,,,"[""down"",""left"",""down"",""right""]",big_car,15,12
1,,,,4,0,"[""right"",""up"",""up"",""left""]",,,"[""reward"",""reward"",""reward"",""reward""]",,7121,686d439432af8f925e913308,677ea99632ede91523475586,686d429798a6ab910e8e7a41,7,big_sedan,big,#822cd1,,,,,,,,,,,,,,"[""right"",""up"",""up"",""left""]",big_car,15,12
1,,,,4,0,"[""left"",""down"",""down"",""right""]",,,"[""reward"",""reward"",""reward"",""reward""]",,10628,686d439432af8f925e913308,677ea99632ede91523475586,686d429798a6ab910e8e7a41,8,big_car,big,#ebeb5e,,,,,,,,,,,,,,"[""left"",""down"",""down"",""right""]",big_car,15,12
1,,,,4,0,"[""left"",""left"",""up"",""up""]",,,"[""reward"",""reward"",""reward"",""reward""]",,5243,686d439432af8f925e913308,677ea99632ede91523475586,686d429798a6ab910e8e7a41,9,big_car,big,#2ca02c,,,,,,,,,,,,,,"[""left"",""left"",""up"",""up""]",big_car,15,12
1,,,,4,0,"[""right"",""up"",""up"",""left""]",,,"[""reward"",""reward"",""reward"",""reward""]",,7300,686d439432af8f925e913308,677ea99632ede91523475586,686d429798a6ab910e8e7a41,10,big_car,big,#FF5733,,,,,,,,,,,,,,"[""right"",""up"",""up"",""left""]",big_car,15,12
1,,,,4,0,"[""down"",""right"",""up"",""right""]",,,"[""reward"",""reward"",""reward"",""reward""]",,13872,686d439432af8f925e913308,677ea99632ede91523475586,686d429798a6ab910e8e7a41,11,big_sedan,big,#822cd1,,,,,,,,,,,,,,"[""down"",""right"",""up"",""right""]",big_car,15,12
1,,,,4,0,"[""right"",""up"",""left"",""left""]",,,"[""reward"",""reward"",""reward"",""reward""]",,6895,686d439432af8f925e913308,677ea99632ede91523475586,686d429798a6ab910e8e7a41,12,big_sedan,big,#822cd1,,,,,,,,,,,,,,"[""right"",""up"",""left"",""left""]",big_car,15,12
1,,,,4,0,"[""right"",""right"",""down"",""left""]",,,"[""reward"",""reward"",""reward"",""reward""]",,5501,686d439432af8f925e913308,677ea99632ede91523475586,686d429798a6ab910e8e7a41,13,big_sedan,big,#822cd1,,,,,,,,,,,,,,"[""right"",""down"",""right"",""up""]",big_car,15,12
1,,,,4,0,"[""up"",""up"",""right"",""down""]",,,"[""reward"",""reward"",""reward"",""reward""]",,6933,686d439432af8f925e913308,677ea99632ede91523475586,686d429798a6ab910e8e7a41,14,small_sedan,small,#822cd1,,,,,,,,,,,,,,"[""up"",""right"",""up"",""left""]",big_car,15,12
1,,,,4,0,"[""right"",""down"",""down"",""left""]",,,"[""reward"",""reward"",""reward"",""reward""]",,6324,686d439432af8f925e913308,677ea99632ede91523475586,686d429798a6ab910e8e7a41,15,small_sedan,small,#822cd1,,,,,,,,,,,,,,"[""right"",""down"",""down"",""left""]",big_car,15,12
1,,,,4,0,"[""right"",""down"",""left"",""left""]",,,"[""reward"",""reward"",""reward"",""reward""]",,7769,686d439432af8f925e913308,677ea99632ede91523475586,686d429798a6ab910e8e7a41,16,big_car,big,#ebeb5e,,,,,,,,,,,,,,"[""right"",""down"",""left"",""left""]",big_car,15,12
1,,,,4,0,"[""up"",""left"",""down"",""down""]",,,"[""reward"",""reward"",""reward"",""reward""]",,7993,686d439432af8f925e913308,677ea99632ede91523475586,686d429798a6ab910e8e7a41,17,big_car,big,#FF99CC,,,,,,,,,,,,,,"[""up"",""left"",""down"",""down""]",big_car,15,12
1,,,,4,0,"[""down"",""left"",""left"",""up""]",,,"[""reward"",""reward"",""reward"",""reward""]",,6015,686d439432af8f925e913308,677ea99632ede91523475586,686d429798a6ab910e8e7a41,18,small_car,small,#822cd1,,,,,,,,,,,,,,"[""down"",""left"",""left"",""up""]",big_car,15,12
1,,,,4,0,"[""left"",""left"",""up"",""right""]",,,"[""reward"",""reward"",""reward"",""reward""]",,7430,686d439432af8f925e913308,677ea99632ede91523475586,686d429798a6ab910e8e7a41,19,small_car,small,#ebeb5e,,,,,,,,,,,,,,"[""left"",""left"",""up"",""right""]",big_car,15,12
1,,,,4,0,"[""up"",""up"",""right"",""right""]",,,"[""reward"",""reward"",""reward"",""reward""]",,5135,686d439432af8f925e913308,677ea99632ede91523475586,686d429798a6ab910e8e7a41,20,big_car,big,#FF5733,,,,,,,,,,,,,,"[""up"",""up"",""right"",""right""]",big_car,15,12
1,,,,4,0,"[""down"",""down"",""left"",""up""]",,,"[""reward"",""reward"",""reward"",""reward""]",,7634,686d439432af8f925e913308,677ea99632ede91523475586,686d429798a6ab910e8e7a41,21,small_car,small,#FF99CC,,,,,,,,,,,,,,"[""down"",""down"",""left"",""up""]",big_car,15,12
1,,,,4,0,"[""up"",""left"",""down"",""down""]",,,"[""reward"",""reward"",""reward"",""reward""]",,7172,686d439432af8f925e913308,677ea99632ede91523475586,686d429798a6ab910e8e7a41,22,big_car,big,#2ca02c,,,,,,,,,,,,,,"[""up"",""left"",""down"",""down""]",big_car,15,12
1,,,,4,0,"[""down"",""down"",""right"",""up""]",,,"[""reward"",""reward"",""reward"",""reward""]",,5606,686d439432af8f925e913308,677ea99632ede91523475586,686d429798a6ab910e8e7a41,23,big_car,big,#FF5733,,,,,,,,,,,,,,"[""down"",""right"",""down"",""left""]",big_car,15,12
1,,,,4,0,"[""down"",""left"",""up"",""left""]",,,"[""reward"",""reward"",""reward"",""reward""]",,6267,686d439432af8f925e913308,677ea99632ede91523475586,686d429798a6ab910e8e7a41,24,small_car,small,#2ca02c,,,,,,,,,,,,,,"[""down"",""left"",""up"",""left""]",big_car,15,12
1,,,,4,0,"[""down"",""down"",""right"",""up""]",,,"[""reward"",""reward"",""reward"",""reward""]",,5499,686d439432af8f925e913308,677ea99632ede91523475586,686d429798a6ab910e8e7a41,25,small_sedan,small,#822cd1,,,,,,,,,,,,,,"[""down"",""down"",""right"",""up""]",big_car,15,12
1,,,,4,0,"[""down"",""down"",""left"",""left""]",,,"[""reward"",""reward"",""reward"",""reward""]",,5048,686d439432af8f925e913308,677ea99632ede91523475586,686d429798a6ab910e8e7a41,26,small_car,small,#FF5733,,,,,,,,,,,,,,"[""down"",""down"",""left"",""left""]",big_car,15,12
1,,,,4,0,"[""left"",""left"",""down"",""right""]",,,"[""reward"",""reward"",""reward"",""reward""]",,5161,686d439432af8f925e913308,677ea99632ede91523475586,686d429798a6ab910e8e7a41,27,small_car,small,#822cd1,,,,,,,,,,,,,,"[""left"",""left"",""down"",""right""]",big_car,15,12
1,,,,4,0,"[""down"",""left"",""up"",""left""]",,,"[""reward"",""reward"",""reward"",""reward""]",,9022,686d439432af8f925e913308,677ea99632ede91523475586,686d429798a6ab910e8e7a41,28,small_sedan,small,#822cd1,,,,,,,,,,,,,,"[""down"",""left"",""up"",""left""]",big_car,15,12
1,,,,4,0,"[""down"",""right"",""right"",""up""]",,,"[""reward"",""reward"",""reward"",""reward""]",,7058,686d439432af8f925e913308,677ea99632ede91523475586,686d429798a6ab910e8e7a41,29,big_car,big,#822cd1,,,,,,,,,,,,,,"[""down"",""right"",""right"",""up""]",big_car,15,12
1,,,,4,0,"[""up"",""up"",""left"",""down""]",,,"[""reward"",""reward"",""reward"",""reward""]",,5438,686d439432af8f925e913308,677ea99632ede91523475586,686d429798a6ab910e8e7a41,30,small_car,small,#2ca02c,,,,,,,,,,,,,,"[""up"",""left"",""up"",""right""]",big_car,15,12
1,,,,4,0,"[""right"",""up"",""left"",""left""]",,,"[""reward"",""reward"",""reward"",""reward""]",,8556,686d439432af8f925e913308,677ea99632ede91523475586,686d429798a6ab910e8e7a41,31,small_sedan,small,#822cd1,,,,,,,,,,,,,,"[""right"",""up"",""left"",""left""]",big_car,15,12
1,,,,4,0,"[""down"",""right"",""down"",""right""]",,,"[""reward"",""reward"",""reward"",""reward""]",,8345,686d439432af8f925e913308,677ea99632ede91523475586,686d429798a6ab910e8e7a41,32,big_car,big,#822cd1,,,,,,,,,,,,,,"[""down"",""right"",""down"",""right""]",big_car,15,12
1,,,,4,0,"[""up"",""up"",""right"",""down""]",,,"[""reward"",""reward"",""reward"",""reward""]",,5412,686d439432af8f925e913308,677ea99632ede91523475586,686d429798a6ab910e8e7a41,33,small_car,small,#FF99CC,,,,,,,,,,,,,,"[""up"",""up"",""right"",""down""]",big_car,15,12
1,,,,4,0,"[""right"",""up"",""left"",""left""]",,,"[""reward"",""reward"",""reward"",""reward""]",,8260,686d439432af8f925e913308,677ea99632ede91523475586,686d429798a6ab910e8e7a41,34,big_sedan,big,#822cd1,,,,,,,,,,,,,,"[""right"",""up"",""left"",""left""]",big_car,15,12
1,,,,4,0,"[""right"",""up"",""left"",""left""]",,,"[""reward"",""reward"",""reward"",""reward""]",,6540,686d439432af8f925e913308,677ea99632ede91523475586,686d429798a6ab910e8e7a41,35,big_sedan,big,#822cd1,,,,,,,,,,,,,,"[""right"",""up"",""left"",""left""]",big_car,15,12
1,,,,4,0,"[""right"",""down"",""left"",""down""]",,,"[""reward"",""reward"",""reward"",""reward""]",,8275,686d439432af8f925e913308,677ea99632ede91523475586,686d429798a6ab910e8e7a41,36,small_sedan,small,#822cd1,,,,,,,,,,,,,,"[""right"",""down"",""left"",""down""]",big_car,15,12
1,,,,4,0,"[""left"",""left"",""down"",""down""]",,,"[""reward"",""reward"",""reward"",""reward""]",,5928,686d439432af8f925e913308,677ea99632ede91523475586,686d429798a6ab910e8e7a41,37,big_car,big,#FF99CC,,,,,,,,,,,,,,"[""left"",""left"",""down"",""down""]",big_car,15,12
1,,,,4,0,"[""up"",""left"",""left"",""up""]",,,"[""reward"",""reward"",""reward"",""reward""]",,6848,686d439432af8f925e913308,677ea99632ede91523475586,686d429798a6ab910e8e7a41,38,big_car,big,#ebeb5e,,,,,,,,,,,,,,"[""up"",""left"",""left"",""up""]",big_car,15,12
1,,,,4,0,"[""left"",""down"",""right"",""right""]",,,"[""reward"",""reward"",""reward"",""reward""]",,6749,686d439432af8f925e913308,677ea99632ede91523475586,686d429798a6ab910e8e7a41,39,big_sedan,big,#822cd1,,,,,,,,,,,,,,"[""left"",""down"",""right"",""right""]",big_car,15,12
1,,,,4,0,"[""up"",""left"",""left"",""down""]",,,"[""reward"",""reward"",""reward"",""reward""]",,7292,686d439432af8f925e913308,677ea99632ede91523475586,686d429798a6ab910e8e7a41,40,big_sedan,big,#822cd1,,,,,,,,,,,,,,"[""up"",""left"",""left"",""down""]",big_car,15,12
1,,,,4,0,"[""down"",""right"",""down"",""left""]",,,"[""reward"",""reward"",""reward"",""reward""]",,6666,686d439432af8f925e913308,677ea99632ede91523475586,686d429798a6ab910e8e7a41,41,big_car,big,#2ca02c,,,,,,,,,,,,,,"[""down"",""down"",""right"",""up""]",big_car,15,12
1,,,,4,0,"[""left"",""left"",""down"",""right""]",,,"[""reward"",""reward"",""reward"",""reward""]",,6895,686d439432af8f925e913308,677ea99632ede91523475586,686d429798a6ab910e8e7a41,42,small_sedan,small,#822cd1,,,,,,,,,,,,,,"[""left"",""down"",""left"",""up""]",big_car,15,12
1,,,,4,0,"[""up"",""right"",""down"",""down""]",,,"[""reward"",""reward"",""reward"",""reward""]",,6511,686d439432af8f925e913308,677ea99632ede91523475586,686d429798a6ab910e8e7a41,43,big_sedan,big,#822cd1,,,,,,,,,,,,,,"[""up"",""right"",""down"",""down""]",big_car,15,12
1,,,,4,0,"[""left"",""left"",""down"",""right""]",,,"[""reward"",""reward"",""reward"",""reward""]",,5666,686d439432af8f925e913308,677ea99632ede91523475586,686d429798a6ab910e8e7a41,44,small_sedan,small,#822cd1,,,,,,,,,,,,,,"[""left"",""down"",""left"",""up""]",big_car,15,12
1,,,,4,0,"[""up"",""left"",""up"",""left""]",,,"[""reward"",""reward"",""reward"",""reward""]",,5962,686d439432af8f925e913308,677ea99632ede91523475586,686d429798a6ab910e8e7a41,45,big_sedan,big,#822cd1,,,,,,,,,,,,,,"[""up"",""left"",""up"",""left""]",big_car,15,12
1,,,,4,0,"[""right"",""down"",""left"",""left""]",,,"[""reward"",""reward"",""reward"",""reward""]",,6296,686d439432af8f925e913308,677ea99632ede91523475586,686d429798a6ab910e8e7a41,46,small_sedan,small,#822cd1,,,,,,,,,,,,,,"[""right"",""down"",""left"",""left""]",big_car,15,12
1,,,,4,0,"[""up"",""right"",""up"",""right""]",,,"[""reward"",""reward"",""reward"",""reward""]",,7315,686d439432af8f925e913308,677ea99632ede91523475586,686d429798a6ab910e8e7a41,47,small_sedan,small,#822cd1,,,,,,,,,,,,,,"[""up"",""right"",""up"",""right""]",big_car,15,12
1,,,,4,0,"[""down"",""left"",""left"",""up""]",,,"[""reward"",""reward"",""reward"",""reward""]",,5706,686d439432af8f925e913308,677ea99632ede91523475586,686d429798a6ab910e8e7a41,48,small_car,small,#FF5733,,,,,,,,,,,,,,"[""down"",""left"",""left"",""up""]",big_car,15,12
1,,,,4,0,"[""right"",""down"",""left"",""left""]",,,"[""reward"",""reward"",""reward"",""reward""]",,6151,686d439432af8f925e913308,677ea99632ede91523475586,686d429798a6ab910e8e7a41,49,big_sedan,big,#822cd1,,,,,,,,,,,,,,"[""right"",""down"",""left"",""left""]",big_car,15,12
1,,,,4,0,"[""right"",""up"",""right"",""down""]",,,"[""reward"",""reward"",""reward"",""reward""]",,8673,686d439432af8f925e913308,677ea99632ede91523475586,686d429798a6ab910e8e7a41,50,big_car,big,#822cd1,,,,,,,,,,,,,,"[""right"",""up"",""right"",""down""]",big_car,15,12
1,,,,4,0,"[""left"",""down"",""down"",""right""]",,,"[""reward"",""reward"",""reward"",""reward""]",,5329,686d439432af8f925e913308,677ea99632ede91523475586,686d429798a6ab910e8e7a41,51,small_sedan,small,#822cd1,,,,,,,,,,,,,,"[""left"",""down"",""down"",""right""]",big_car,15,12
1,,,,4,0,"[""left"",""up"",""up"",""right""]",,,"[""reward"",""reward"",""reward"",""reward""]",,4963,686d439432af8f925e913308,677ea99632ede91523475586,686d429798a6ab910e8e7a41,52,small_car,small,#822cd1,,,,,,,,,,,,,,"[""left"",""up"",""up"",""right""]",big_car,15,12
1,,,,4,0,"[""up"",""right"",""right"",""up""]",,,"[""reward"",""reward"",""reward"",""reward""]",,5615,686d439432af8f925e913308,677ea99632ede91523475586,686d429798a6ab910e8e7a41,53,small_sedan,small,#822cd1,,,,,,,,,,,,,,"[""up"",""right"",""right"",""up""]",big_car,15,12
1,,,,4,0,"[""left"",""down"",""down"",""right""]",,,"[""reward"",""reward"",""reward"",""reward""]",,6368,686d439432af8f925e913308,677ea99632ede91523475586,686d429798a6ab910e8e7a41,54,big_car,big,#FF99CC,,,,,,,,,,,,,,"[""left"",""down"",""down"",""right""]",big_car,15,12
1,,,,4,0,"[""right"",""right"",""down"",""left""]",,,"[""reward"",""reward"",""reward"",""reward""]",,6876,686d439432af8f925e913308,677ea99632ede91523475586,686d429798a6ab910e8e7a41,55,big_sedan,big,#822cd1,,,,,,,,,,,,,,"[""right"",""right"",""down"",""left""]",big_car,15,12
1,,,,4,0,"[""right"",""down"",""down"",""left""]",,,"[""reward"",""reward"",""reward"",""reward""]",,6521,686d439432af8f925e913308,677ea99632ede91523475586,686d429798a6ab910e8e7a41,56,small_sedan,small,#822cd1,,,,,,,,,,,,,,"[""right"",""down"",""down"",""left""]",big_car,15,12
1,,,,4,0,"[""left"",""left"",""up"",""up""]",,,"[""reward"",""reward"",""reward"",""reward""]",,5390,686d439432af8f925e913308,677ea99632ede91523475586,686d429798a6ab910e8e7a41,57,small_car,small,#2ca02c,,,,,,,,,,,,,,"[""left"",""left"",""up"",""up""]",big_car,15,12
1,,,,4,0,"[""right"",""down"",""left"",""left""]",,,"[""reward"",""reward"",""reward"",""reward""]",,7168,686d439432af8f925e913308,677ea99632ede91523475586,686d429798a6ab910e8e7a41,58,small_sedan,small,#822cd1,,,,,,,,,,,,,,"[""right"",""down"",""left"",""left""]",big_car,15,12
1,,,,4,0,"[""down"",""down"",""right"",""right""]",,,"[""reward"",""reward"",""reward"",""reward""]",,4616,686d439432af8f925e913308,677ea99632ede91523475586,686d429798a6ab910e8e7a41,59,small_sedan,small,#822cd1,,,,,,,,,,,,,,"[""down"",""down"",""right"",""right""]",big_car,15,12
1,,,,4,0,"[""down"",""down"",""right"",""up""]",,,"[""reward"",""reward"",""reward"",""reward""]",,5999,686d439432af8f925e913308,677ea99632ede91523475586,686d429798a6ab910e8e7a41,60,small_car,small,#ebeb5e,,,,,,,,,,,,,,"[""down"",""right"",""down"",""left""]",big_car,15,12
2,,1.75199E+12,[],0,0,,[],,"[""empty"",""empty"",""empty"",""empty""]",1.75199E+12,27221,686d439432af8f925e913308,677ea99632ede91523475586,686d429798a6ab910e8e7a41,1,small_sedan,small,#822cd1,xddx,27220,xddx,,0,0,0,0,0,0,0,0,first-order,"[""down"",""right"",""right"",""down""]",big_car,15,12
2,,1.75199E+12,[],0,0,,[],,"[""empty"",""empty"",""empty"",""empty""]",1.75199E+12,10158,686d439432af8f925e913308,677ea99632ede91523475586,686d429798a6ab910e8e7a41,2,big_car,big,#dbc7f0,aawd,10158,aawd,,0,0,0,0,0,0,0,0,first-order,"[""left"",""up"",""left"",""down""]",big_car,15,12
2,,1.75199E+12,"[{""direction"":""up"",""keyPressed"":""w"",""time"":10796},{""direction"":""left"",""keyPressed"":""a"",""time"":10796},{""direction"":""left"",""keyPressed"":""a"",""time"":10796},{""direction"":""down"",""keyPressed"":""x"",""time"":10796}]",0,0,,[],,"[""reward"",""reward"",""reward"",""reward""]",1.75199E+12,10797,686d439432af8f925e913308,677ea99632ede91523475586,686d429798a6ab910e8e7a41,3,small_car,small,#33C1FF,waax,10796,waax,upleftleftdown,4,4,2,2,2,2,0,0,first-order,"[""up"",""left"",""left"",""down""]",big_car,15,12
2,,1.75199E+12,[],0,0,,[],,"[""empty"",""empty"",""empty"",""empty""]",1.75199E+12,10782,686d439432af8f925e913308,677ea99632ede91523475586,686d429798a6ab910e8e7a41,4,medium_sedan,medium,#822cd1,wwax,10782,wwax,,0,0,0,0,,,0,0,second-order,"[""up"",""left"",""up"",""right""]",big_car,15,12
2,,1.75199E+12,[],0,0,,[],,"[""empty"",""empty"",""empty"",""empty""]",1.75199E+12,19082,686d439432af8f925e913308,677ea99632ede91523475586,686d429798a6ab910e8e7a41,5,big_car,big,#ad5d24,xdwa,19082,xdwa,,0,0,0,0,0,0,0,0,first-order,"[""down"",""right"",""up"",""right""]",big_car,15,12
2,,1.75199E+12,"[{""direction"":""up"",""keyPressed"":""w"",""time"":6614},{""direction"":""up"",""keyPressed"":""w"",""time"":6614},{""direction"":""left"",""keyPressed"":""a"",""time"":6614},{""direction"":""down"",""keyPressed"":""x"",""time"":6614}]",0,0,,[],,"[""reward"",""reward"",""reward"",""reward""]",1.75199E+12,6614,686d439432af8f925e913308,677ea99632ede91523475586,686d429798a6ab910e8e7a41,6,small_car,small,#ad5d24,wwax,6614,wwax,upupleftdown,4,4,3,1,3,1,0,0,first-order,"[""up"",""up"",""left"",""down""]",big_car,15,12
2,,1.75199E+12,[],0,0,,[],,"[""empty"",""empty"",""empty"",""empty""]",1.75199E+12,7414,686d439432af8f925e913308,677ea99632ede91523475586,686d429798a6ab910e8e7a41,7,big_sedan,big,#822cd1,xxaa,7414,xxaa,,0,0,0,0,0,0,0,0,first-order,"[""down"",""down"",""left"",""left""]",big_car,15,12
2,,1.75199E+12,[],0,0,,[],,"[""empty"",""empty"",""empty"",""empty""]",1.75199E+12,9215,686d439432af8f925e913308,677ea99632ede91523475586,686d429798a6ab910e8e7a41,8,medium_sedan,medium,#822cd1,ddwa,9214,ddwa,,0,0,0,0,,,0,0,second-order,"[""right"",""right"",""up"",""left""]",big_car,15,12
2,,1.75199E+12,[],0,0,,[],,"[""empty"",""empty"",""empty"",""empty""]",1.75199E+12,7749,686d439432af8f925e913308,677ea99632ede91523475586,686d429798a6ab910e8e7a41,9,medium_sedan,medium,#822cd1,wwax,7748,wwax,,0,0,0,0,,,0,0,second-order,"[""up"",""left"",""up"",""right""]",big_car,15,12
2,,1.75199E+12,[],0,0,,[],,"[""empty"",""empty"",""empty"",""empty""]",1.75199E+12,5716,686d439432af8f925e913308,677ea99632ede91523475586,686d429798a6ab910e8e7a41,10,medium_car,medium,#33C1FF,dwwa,5715,dwwa,rightupupleft,4,4,2,2,,,-4,-4,second-order,"[""right"",""up"",""up"",""left""]",big_car,15,12
2,,1.75199E+12,[],0,0,,[],,"[""empty"",""empty"",""empty"",""empty""]",1.75199E+12,9746,686d439432af8f925e913308,677ea99632ede91523475586,686d429798a6ab910e8e7a41,11,medium_car,medium,#2c0eb5,wwdx,9745,wwdx,upuprightdown,4,4,3,1,,,-4,-4,second-order,"[""up"",""up"",""right"",""down""]",big_car,15,12
2,,1.75199E+12,[],0,0,,[],,"[""empty"",""empty"",""empty"",""empty""]",1.75199E+12,5913,686d439432af8f925e913308,677ea99632ede91523475586,686d429798a6ab910e8e7a41,12,small_sedan,small,#822cd1,dwwa,5912,dwwa,,0,0,0,0,0,0,0,0,first-order,"[""right"",""up"",""up"",""left""]",big_car,15,12
2,,1.75199E+12,[],0,0,,[],,"[""empty"",""empty"",""empty"",""empty""]",1.75199E+12,15382,686d439432af8f925e913308,677ea99632ede91523475586,686d429798a6ab910e8e7a41,13,medium_car,medium,#dbc7f0,wawd,15382,wawd,upleftupright,4,1,1,0,,,-4,-1,second-order,"[""up"",""up"",""left"",""down""]",big_car,15,12
2,,1.75199E+12,[],0,0,,[],,"[""empty"",""empty"",""empty"",""empty""]",1.75199E+12,8714,686d439432af8f925e913308,677ea99632ede91523475586,686d429798a6ab910e8e7a41,14,big_sedan,big,#822cd1,wdxx,8714,wdxx,,0,0,0,0,0,0,0,0,first-order,"[""up"",""right"",""down"",""down""]",big_car,15,12
2,,1.75199E+12,[],0,0,,[],,"[""empty"",""empty"",""empty"",""empty""]",1.75199E+12,7281,686d439432af8f925e913308,677ea99632ede91523475586,686d429798a6ab910e8e7a41,15,medium_sedan,medium,#822cd1,xaaw,7280,xaaw,,0,0,0,0,,,0,0,second-order,"[""down"",""left"",""left"",""up""]",big_car,15,12
2,,1.75199E+12,[],0,0,,[],,"[""empty"",""empty"",""empty"",""empty""]",1.75199E+12,7482,686d439432af8f925e913308,677ea99632ede91523475586,686d429798a6ab910e8e7a41,16,medium_car,medium,#ad5d24,axxd,7482,axxd,leftdowndownright,4,4,2,2,,,-4,-4,second-order,"[""left"",""down"",""down"",""right""]",big_car,15,12
2,,1.75199E+12,[],0,0,,[],,"[""empty"",""empty"",""empty"",""empty""]",1.75199E+12,8929,686d439432af8f925e913308,677ea99632ede91523475586,686d429798a6ab910e8e7a41,17,medium_sedan,medium,#822cd1,wddx,8929,wddx,,0,0,0,0,,,0,0,second-order,"[""up"",""right"",""right"",""down""]",big_car,15,12
2,,1.75199E+12,[],0,0,,[],,"[""empty"",""empty"",""empty"",""empty""]",1.75199E+12,7331,686d439432af8f925e913308,677ea99632ede91523475586,686d429798a6ab910e8e7a41,18,big_sedan,big,#822cd1,wdxd,7330,wdxd,,0,0,0,0,0,0,0,0,first-order,"[""up"",""right"",""down"",""right""]",big_car,15,12
